stimImg,taskType,audTrial,letter,correctResponse,familiarCorrect,sourceCorrect,encode_trials1.thisRepN,encode_trials1.thisTrialN,encode_trials1.thisN,encode_trials1.thisIndex,encode_trials2.thisRepN,encode_trials2.thisTrialN,encode_trials2.thisN,encode_trials2.thisIndex,distractor.thisRepN,distractor.thisTrialN,distractor.thisN,distractor.thisIndex,encode_trials3.thisRepN,encode_trials3.thisTrialN,encode_trials3.thisN,encode_trials3.thisIndex,encode_trials4.thisRepN,encode_trials4.thisTrialN,encode_trials4.thisN,encode_trials4.thisIndex,distractor_2.thisRepN,distractor_2.thisTrialN,distractor_2.thisN,distractor_2.thisIndex,encode_trials5.thisRepN,encode_trials5.thisTrialN,encode_trials5.thisN,encode_trials5.thisIndex,encode_trials6.thisRepN,encode_trials6.thisTrialN,encode_trials6.thisN,encode_trials6.thisIndex,distractor3.thisRepN,distractor3.thisTrialN,distractor3.thisN,distractor3.thisIndex,encode_trials7.thisRepN,encode_trials7.thisTrialN,encode_trials7.thisN,encode_trials7.thisIndex,encode_trials8.thisRepN,encode_trials8.thisTrialN,encode_trials8.thisN,encode_trials8.thisIndex,distractor4.thisRepN,distractor4.thisTrialN,distractor4.thisN,distractor4.thisIndex,retrieval_trials1.thisRepN,retrieval_trials1.thisTrialN,retrieval_trials1.thisN,retrieval_trials1.thisIndex,retrieval_trials2.thisRepN,retrieval_trials2.thisTrialN,retrieval_trials2.thisN,retrieval_trials2.thisIndex,retrieval_trials3.thisRepN,retrieval_trials3.thisTrialN,retrieval_trials3.thisN,retrieval_trials3.thisIndex,retrieval_trials4.thisRepN,retrieval_trials4.thisTrialN,retrieval_trials4.thisN,retrieval_trials4.thisIndex,button_check_1.started,button_check_1.stopped,button_check_resp_1.keys,button_check_resp_1.rt,button_check_resp_1.started,button_check_resp_1.stopped,text_2.started,text_2.stopped,key_resp_3.keys,key_resp_3.rt,key_resp_3.started,key_resp_3.stopped,text_3.started,text_3.stopped,key_resp_4.keys,key_resp_4.rt,key_resp_4.started,key_resp_4.stopped,text_4.started,text_4.stopped,key_resp_5.keys,key_resp_5.rt,key_resp_5.started,key_resp_5.stopped,wait_text.started,wait_text.stopped,scanner_pulse.keys,scanner_pulse.rt,scanner_pulse.started,scanner_pulse.stopped,Trial_cue_onset,instruction.started,instruction.stopped,image_3.started,image_3.stopped,in_.started,in_.stopped,source_cue.started,source_cue.stopped,fixation.started,fixation.stopped,Response_cue_onset,rating.started,rating.stopped,text.started,text.stopped,rating_resp.keys,rating_resp.rt,rating_resp.started,rating_resp.stopped,text_16.started,text_16.stopped,instruc.started,instruc.stopped,distractor_task.started,distractor_task.stopped,distractor_task_resp.keys,distractor_task_resp.corr,distractor_task_resp.started,distractor_task_resp.stopped,flicker.started,flicker.stopped,distractor_task_resp.rt,end_screen.started,end_screen.stopped,spacebar_press.keys,spacebar_press.rt,spacebar_press.started,spacebar_press.stopped,one_moment.started,one_moment.stopped,Trial_familiarity_onset,item_rec.started,item_rec.stopped,image_4.started,image_4.stopped,item_rec_guide.started,item_rec_guide.stopped,item_rec_resp.keys,item_rec_resp.corr,item_rec_resp.rt,item_rec_resp.started,item_rec_resp.stopped,Trial_source_onset,source_rec.started,source_rec.stopped,source_rec_resp.keys,source_rec_resp.corr,source_rec_resp.rt,source_rec_resp.started,source_rec_resp.stopped,text_14.started,text_14.stopped,participant,session,group,university,date,expName,psychopyVersion,frameRate,
,,,,,,,,,,,,,,,,,,,,,,,,,,,,,,,,,,,,,,,,,,,,,,,,,,,,,,,,,,,,,,,,,,,,,,,15.287218199984636,None,1,2.3712673999834806,15.287218199984636,None,,,,,,,,,,,,,,,,,,,,,,,,,,,,,,,,,,,,,,,,,,,,,,,,,,,,,,,,,,,,,,,,,,,,,,,,,,,,,,,,,,,,,,,,1104-t1,001,2,1,2022_Mar_21_1525,task_complete_blocked_LC_updated,2021.2.3,236.7284133294798,
,,,,,,,,,,,,,,,,,,,,,,,,,,,,,,,,,,,,,,,,,,,,,,,,,,,,,,,,,,,,,,,,,,,,,,,,,,,,,17.668628700019326,None,2,0.34167160000652075,17.668628700019326,None,,,,,,,,,,,,,,,,,,,,,,,,,,,,,,,,,,,,,,,,,,,,,,,,,,,,,,,,,,,,,,,,,,,,,,,,,,,,,,,,,,1104-t1,001,2,1,2022_Mar_21_1525,task_complete_blocked_LC_updated,2021.2.3,236.7284133294798,
,,,,,,,,,,,,,,,,,,,,,,,,,,,,,,,,,,,,,,,,,,,,,,,,,,,,,,,,,,,,,,,,,,,,,,,,,,,,,,,,,,,18.021158799994737,None,3,0.3012365000322461,18.021158799994737,None,,,,,,,,,,,,,,,,,,,,,,,,,,,,,,,,,,,,,,,,,,,,,,,,,,,,,,,,,,,,,,,,,,,,,,,,,,,,1104-t1,001,2,1,2022_Mar_21_1525,task_complete_blocked_LC_updated,2021.2.3,236.7284133294798,
,,,,,,,,,,,,,,,,,,,,,,,,,,,,,,,,,,,,,,,,,,,,,,,,,,,,,,,,,,,,,,,,,,,,,,,,,,,,,,,,,,,,,,,,,18.33209749998059,None,4,0.30222480004886165,18.33209749998059,None,,,,,,,,,,,,,,,,,,,,,,,,,,,,,,,,,,,,,,,,,,,,,,,,,,,,,,,,,,,,,,,,,,,,,,1104-t1,001,2,1,2022_Mar_21_1525,task_complete_blocked_LC_updated,2021.2.3,236.7284133294798,
,,,,,,,,,,,,,,,,,,,,,,,,,,,,,,,,,,,,,,,,,,,,,,,,,,,,,,,,,,,,,,,,,,,,,,,,,,,,,,,,,,,,,,,,,,,,,,,18.644140999997035,None,5,30.468065300025046,18.644140999997035,None,,,,,,,,,,,,,,,,,,,,,,,,,,,,,,,,,,,,,,,,,,,,,,,,,,,,,,,,,,,,,,,,1104-t1,001,2,1,2022_Mar_21_1525,task_complete_blocked_LC_updated,2021.2.3,236.7284133294798,
stimulus_images/AOTOSCOP5.jpg,SPACE,0,,,,,0,0,0,9,,,,,,,,,,,,,,,,,,,,,,,,,,,,,,,,,,,,,,,,,,,,,,,,,,,,,,,,,,,,,,,,,,,,,,,,,,,,,,,,,,,,,,,,,,,2.600019797682762e-06,49.143319899972994,51.14370610000333,49.143319899972994,51.14370610000333,50.13836490001995,51.13685120001901,50.13836490001995,51.13685120001901,51.13685120001901,None,5.9918370000086725,55.126603799988516,None,55.126603799988516,None,1,2.989189699990675,55.126603799988516,None,61.1265226000105,None,,,,,,,,,,,,,,,,,,,,,,,,,,,,,,,,,,,,,,,,,,1104-t1,001,2,1,2022_Mar_21_1525,task_complete_blocked_LC_updated,2021.2.3,236.7284133294798,
stimulus_images/AICESKAT8.jpg,SPACE,0,,,,,0,1,1,8,,,,,,,,,,,,,,,,,,,,,,,,,,,,,,,,,,,,,,,,,,,,,,,,,,,,,,,,,,,,,,,,,,,,,,,,,,,,,,,,,,,,,,,,,,,12.9972160999896,62.14105249999557,64.14077820000239,62.14105249999557,64.14077820000239,63.13752410002053,64.13706199999433,63.13752410002053,64.13706199999433,64.13706199999433,None,18.999585999990813,68.13409289997071,None,68.13409289997071,None,3,1.3421928999596275,68.13409289997071,None,74.1312973999884,None,,,,,,,,,,,,,,,,,,,,,,,,,,,,,,,,,,,,,,,,,,1104-t1,001,2,1,2022_Mar_21_1525,task_complete_blocked_LC_updated,2021.2.3,236.7284133294798,
stimulus_images/Acomputerdriv.jpg,SPACE,0,,,,,0,2,2,5,,,,,,,,,,,,,,,,,,,,,,,,,,,,,,,,,,,,,,,,,,,,,,,,,,,,,,,,,,,,,,,,,,,,,,,,,,,,,,,,,,,,,,,,,,,27.998159200011287,77.13629890000448,79.14003130001947,77.13629890000448,79.14003130001947,78.13112590002129,79.13097800000105,78.13112590002129,79.13097800000105,79.13097800000105,None,34.00012069998775,83.13358129997505,None,83.13358129997505,None,2,0.7585423000273295,83.13358129997505,None,89.13566279999213,None,,,,,,,,,,,,,,,,,,,,,,,,,,,,,,,,,,,,,,,,,,1104-t1,001,2,1,2022_Mar_21_1525,task_complete_blocked_LC_updated,2021.2.3,236.7284133294798,
stimulus_images/ABALLYAR4.jpg,SPACE,0,,,,,0,3,3,1,,,,,,,,,,,,,,,,,,,,,,,,,,,,,,,,,,,,,,,,,,,,,,,,,,,,,,,,,,,,,,,,,,,,,,,,,,,,,,,,,,,,,,,,,,,43.00598449999234,92.14997650001897,94.15651529998286,92.14997650001897,94.15651529998286,93.14641069999197,94.15651529998286,93.14641069999197,94.15651529998286,94.15651529998286,None,49.008068199967965,98.14252240001224,None,98.14252240001224,None,3,1.3988903000135906,98.14252240001224,None,104.14074210001854,None,,,,,,,,,,,,,,,,,,,,,,,,,,,,,,,,,,,,,,,,,,1104-t1,001,2,1,2022_Mar_21_1525,task_complete_blocked_LC_updated,2021.2.3,236.7284133294798,
stimulus_images/Aeasteregg14.jpg,SPACE,0,,,,,0,4,4,6,,,,,,,,,,,,,,,,,,,,,,,,,,,,,,,,,,,,,,,,,,,,,,,,,,,,,,,,,,,,,,,,,,,,,,,,,,,,,,,,,,,,,,,,,,,57.00985629996285,106.14621239999542,108.15144059999147,106.14621239999542,108.15144059999147,107.14227259997278,108.14393969997764,107.14227259997278,108.14393969997764,108.13998540001921,None,63.00949299999047,112.14297159999842,None,112.14297159999842,None,2,1.2145616000052541,112.14297159999842,None,118.14601899997797,None,,,,,,,,,,,,,,,,,,,,,,,,,,,,,,,,,,,,,,,,,,1104-t1,001,2,1,2022_Mar_21_1525,task_complete_blocked_LC_updated,2021.2.3,236.7284133294798,
stimulus_images/ACAROSLI2.jpg,SPACE,0,,,,,0,5,5,4,,,,,,,,,,,,,,,,,,,,,,,,,,,,,,,,,,,,,,,,,,,,,,,,,,,,,,,,,,,,,,,,,,,,,,,,,,,,,,,,,,,,,,,,,,,71.01392449997365,120.1517197000212,122.15341179998359,120.1517197000212,122.15341179998359,121.1474783999729,122.15051399997901,121.1474783999729,122.15051399997901,122.14639820001321,None,77.01422909996472,126.14782670000568,None,126.14782670000568,None,3,0.7435629999963567,126.14782670000568,None,132.14944329997525,None,,,,,,,,,,,,,,,,,,,,,,,,,,,,,,,,,,,,,,,,,,1104-t1,001,2,1,2022_Mar_21_1525,task_complete_blocked_LC_updated,2021.2.3,236.7284133294798,
stimulus_images/ABILLTABL.jpg,SPACE,1,,,,,0,6,6,2,,,,,,,,,,,,,,,,,,,,,,,,,,,,,,,,,,,,,,,,,,,,,,,,,,,,,,,,,,,,,,,,,,,,,,,,,,,,,,,,,,,,,,,,,,,85.01806259999285,134.15439099998912,136.15607700002147,134.15439099998912,136.15607700002147,135.15050849999534,136.1530761999893,135.15050849999534,136.1530761999893,136.14907159999711,None,91.01877719996264,140.152757200005,None,140.152757200005,None,3,1.5164690000237897,140.152757200005,None,146.15352360001998,None,,,,,,,,,,,,,,,,,,,,,,,,,,,,,,,,,,,,,,,,,,1104-t1,001,2,1,2022_Mar_21_1525,task_complete_blocked_LC_updated,2021.2.3,236.7284133294798,
stimulus_images/Aboxofchocola.jpg,SPACE,0,,,,,0,7,7,3,,,,,,,,,,,,,,,,,,,,,,,,,,,,,,,,,,,,,,,,,,,,,,,,,,,,,,,,,,,,,,,,,,,,,,,,,,,,,,,,,,,,,,,,,,,98.02237129997229,147.15931429999182,149.15922049997607,147.15931429999182,149.15922049997607,148.1590259000077,149.15922049997607,148.1590259000077,149.15922049997607,149.15647469996475,None,104.02552379999543,153.1604961999692,None,153.1604961999692,None,2,1.5987171999877319,153.1604961999692,None,159.1611626999802,None,,,,,,,,,,,,,,,,,,,,,,,,,,,,,,,,,,,,,,,,,,1104-t1,001,2,1,2022_Mar_21_1525,task_complete_blocked_LC_updated,2021.2.3,236.7284133294798,
stimulus_images/Agiftbag20.jpg,SPACE,1,,,,,0,8,8,7,,,,,,,,,,,,,,,,,,,,,,,,,,,,,,,,,,,,,,,,,,,,,,,,,,,,,,,,,,,,,,,,,,,,,,,,,,,,,,,,,,,,,,,,,,,112.03098189999582,161.1692752999952,163.16941299999598,161.1692752999952,163.16941299999598,162.16465709998738,163.16586519998964,162.16465709998738,163.16586519998964,163.16586519998964,None,118.03329579997808,167.17229590000352,None,167.17229590000352,None,3,1.9043622000026517,167.17229590000352,None,173.16772149997996,None,,,,,,,,,,,,,,,,,,,,,,,,,,,,,,,,,,,,,,,,,,1104-t1,001,2,1,2022_Mar_21_1525,task_complete_blocked_LC_updated,2021.2.3,236.7284133294798,
stimulus_images/AARMCHA25.jpg,SPACE,0,,,,,0,9,9,0,,,,,,,,,,,,,,,,,,,,,,,,,,,,,,,,,,,,,,,,,,,,,,,,,,,,,,,,,,,,,,,,,,,,,,,,,,,,,,,,,,,,,,,,,,,126.03515319997678,175.1784776999848,177.18013350002002,175.1784776999848,177.18013350002002,176.17643880000105,177.17725710000377,176.17643880000105,177.17725710000377,177.17725710000377,None,132.04307929996867,181.1824599999818,None,181.1824599999818,None,3,1.349436999997124,181.1824599999818,None,187.1709717999911,None,,,,,,,,,,,,,,,,,,,,,,,,,,,,,,,,,,,,,,,,,,1104-t1,001,2,1,2022_Mar_21_1525,task_complete_blocked_LC_updated,2021.2.3,236.7284133294798,
stimulus_images/Aantiquerota7.jpg,SPACE,0,,,,,,,,,0,0,0,6,,,,,,,,,,,,,,,,,,,,,,,,,,,,,,,,,,,,,,,,,,,,,,,,,,,,,,,,,,,,,,,,,,,,,,,,,,,,,,,,,,,,,,,140.0460957000032,189.1903966999962,191.18926279997686,189.1903966999962,191.18926279997686,190.18401500000618,191.1855523000122,190.18401500000618,191.1855523000122,191.1855523000122,None,146.0421364000067,195.1767856000224,None,195.1767856000224,None,2,0.6490360000170767,195.1767856000224,None,201.173324399977,None,,,,,,,,,,,,,,,,,,,,,,,,,,,,,,,,,,,,,,,,,,1104-t1,001,2,1,2022_Mar_21_1525,task_complete_blocked_LC_updated,2021.2.3,236.7284133294798,
stimulus_images/Aboots56.jpg,SPACE,0,,,,,,,,,0,1,1,9,,,,,,,,,,,,,,,,,,,,,,,,,,,,,,,,,,,,,,,,,,,,,,,,,,,,,,,,,,,,,,,,,,,,,,,,,,,,,,,,,,,,,,,153.0436125000124,202.1871644000057,204.18834399996558,202.1871644000057,204.18834399996558,203.18357860000106,204.1854645999847,203.18357860000106,204.1854645999847,204.1854645999847,None,159.04602100001648,208.18017549999058,None,208.18017549999058,None,2,0.6850484000169672,208.18017549999058,None,214.18054759997176,None,,,,,,,,,,,,,,,,,,,,,,,,,,,,,,,,,,,,,,,,,,1104-t1,001,2,1,2022_Mar_21_1525,task_complete_blocked_LC_updated,2021.2.3,236.7284133294798,
stimulus_images/Abackpack11.jpg,SPACE,1,,,,,,,,,0,2,2,7,,,,,,,,,,,,,,,,,,,,,,,,,,,,,,,,,,,,,,,,,,,,,,,,,,,,,,,,,,,,,,,,,,,,,,,,,,,,,,,,,,,,,,,166.04859959997702,215.19446949998382,217.19550430000527,215.19446949998382,217.19550430000527,216.18816949997563,217.18819070002064,216.18816949997563,217.18819070002064,217.18819070002064,None,172.05192359996727,221.18526759999804,None,221.18526759999804,None,2,1.3519799999776296,221.18526759999804,None,227.1834599999711,None,,,,,,,,,,,,,,,,,,,,,,,,,,,,,,,,,,,,,,,,,,1104-t1,001,2,1,2022_Mar_21_1525,task_complete_blocked_LC_updated,2021.2.3,236.7284133294798,
stimulus_images/Aroadsignin15.jpg,SPACE,1,,,,,,,,,0,3,3,0,,,,,,,,,,,,,,,,,,,,,,,,,,,,,,,,,,,,,,,,,,,,,,,,,,,,,,,,,,,,,,,,,,,,,,,,,,,,,,,,,,,,,,,180.0521935999859,229.1965438000043,231.19759669998894,229.1965438000043,231.19759669998894,230.19004449999193,231.19078130001435,230.19004449999193,231.19078130001435,231.19078130001435,None,186.0546367999632,235.1887679999927,None,235.1887679999927,None,2,1.1570834000012837,235.1887679999927,None,241.1909108000109,None,,,,,,,,,,,,,,,,,,,,,,,,,,,,,,,,,,,,,,,,,,1104-t1,001,2,1,2022_Mar_21_1525,task_complete_blocked_LC_updated,2021.2.3,236.7284133294798,
stimulus_images/A25thdec3.jpg,SPACE,0,,,,,,,,,0,4,4,4,,,,,,,,,,,,,,,,,,,,,,,,,,,,,,,,,,,,,,,,,,,,,,,,,,,,,,,,,,,,,,,,,,,,,,,,,,,,,,,,,,,,,,,195.06033820001176,244.19799580000108,246.20005619997391,244.19799580000108,246.20005619997391,245.19481040001847,246.19394789997023,245.19481040001847,246.19394789997023,246.19007860001875,None,201.06091110000852,250.19498610001756,None,250.19498610001756,None,3,1.0816912000300363,250.19498610001756,None,256.19619559997227,None,,,,,,,,,,,,,,,,,,,,,,,,,,,,,,,,,,,,,,,,,,1104-t1,001,2,1,2022_Mar_21_1525,task_complete_blocked_LC_updated,2021.2.3,236.7284133294798,
stimulus_images/wetsuit1.jpg,SPACE,0,,,,,,,,,0,5,5,3,,,,,,,,,,,,,,,,,,,,,,,,,,,,,,,,,,,,,,,,,,,,,,,,,,,,,,,,,,,,,,,,,,,,,,,,,,,,,,,,,,,,,,,210.0649754999904,259.2081272000214,261.20953150000423,259.2081272000214,261.20953150000423,260.2051802999922,261.205169999972,260.2051802999922,261.205169999972,261.205169999972,None,216.0670722000068,265.20236350002233,None,265.20236350002233,None,4,1.0258874000282958,265.20236350002233,None,271.2038636999787,None,,,,,,,,,,,,,,,,,,,,,,,,,,,,,,,,,,,,,,,,,,1104-t1,001,2,1,2022_Mar_21_1525,task_complete_blocked_LC_updated,2021.2.3,236.7284133294798,
stimulus_images/Abasketofbrea.jpg,SPACE,0,,,,,,,,,0,6,6,8,,,,,,,,,,,,,,,,,,,,,,,,,,,,,,,,,,,,,,,,,,,,,,,,,,,,,,,,,,,,,,,,,,,,,,,,,,,,,,,,,,,,,,,223.07293949997984,272.2168345999671,274.21815039997455,272.2168345999671,274.21815039997455,273.21433109999634,274.2153110000072,273.21433109999634,274.2153110000072,274.2153110000072,None,229.0754484999925,278.2101680000196,None,278.2101680000196,None,2,1.2064737000036985,278.2101680000196,None,284.20937930000946,None,,,,,,,,,,,,,,,,,,,,,,,,,,,,,,,,,,,,,,,,,,1104-t1,001,2,1,2022_Mar_21_1525,task_complete_blocked_LC_updated,2021.2.3,236.7284133294798,
stimulus_images/Atelescope2.jpg,SPACE,1,,,,,,,,,0,7,7,1,,,,,,,,,,,,,,,,,,,,,,,,,,,,,,,,,,,,,,,,,,,,,,,,,,,,,,,,,,,,,,,,,,,,,,,,,,,,,,,,,,,,,,,238.07688599999528,287.2215061999741,289.2209734999924,287.2215061999741,289.2209734999924,288.2220805999823,289.2237532999716,288.2220805999823,289.2237532999716,289.2167857000022,None,244.08017789997393,293.2139576000045,None,293.2139576000045,None,2,1.5649733999744058,293.2139576000045,None,299.21574090002105,None,,,,,,,,,,,,,,,,,,,,,,,,,,,,,,,,,,,,,,,,,,1104-t1,001,2,1,2022_Mar_21_1525,task_complete_blocked_LC_updated,2021.2.3,236.7284133294798,
stimulus_images/corkscrew02.jpg,SPACE,0,,,,,,,,,0,8,8,2,,,,,,,,,,,,,,,,,,,,,,,,,,,,,,,,,,,,,,,,,,,,,,,,,,,,,,,,,,,,,,,,,,,,,,,,,,,,,,,,,,,,,,,252.0854968999629,301.2288229999831,303.2284426999977,301.2288229999831,303.2284426999977,302.2266731999698,303.2284426999977,302.2266731999698,303.2284426999977,303.2253330000094,None,258.0880677999812,307.2219522999949,None,307.2219522999949,None,2,1.4679206000291742,307.2219522999949,None,313.219299999997,None,,,,,,,,,,,,,,,,,,,,,,,,,,,,,,,,,,,,,,,,,,1104-t1,001,2,1,2022_Mar_21_1525,task_complete_blocked_LC_updated,2021.2.3,236.7284133294798,
stimulus_images/AALTIRE2.jpg,SPACE,0,,,,,,,,,0,9,9,5,,,,,,,,,,,,,,,,,,,,,,,,,,,,,,,,,,,,,,,,,,,,,,,,,,,,,,,,,,,,,,,,,,,,,,,,,,,,,,,,,,,,,,,265.08990670001367,314.23375439998927,316.234764599998,314.23375439998927,316.234764599998,315.23065979999956,316.2315249000094,315.23065979999956,316.2315249000094,316.2315249000094,None,271.0928011999931,320.2280843000044,None,320.2280843000044,None,1,2.046470000001136,320.2280843000044,None,326.22691710002255,None,,,,,,,,,,,,,,,,,,,,,,,,,,,,,,,,,,,,,,,,,,1104-t1,001,2,1,2022_Mar_21_1525,task_complete_blocked_LC_updated,2021.2.3,236.7284133294798,
,,,O,2,,,,,,,,,,,0,0,0,1,,,,,,,,,,,,,,,,,,,,,,,,,,,,,,,,,,,,,,,,,,,,,,,,,,,,,,,,,,,,,,,,,,,,,,,,,,,,,,,,,,,,,,,,,,,,,,,,,,,,,,,,,329.2271640999825,None,332.24467430001823,333.19708100002026,None,0,332.24467430001823,333.19708100002026,333.1931402999908,None,,,,,,,,,,,,,,,,,,,,,,,,,,,,,,,,1104-t1,001,2,1,2022_Mar_21_1525,task_complete_blocked_LC_updated,2021.2.3,236.7284133294798,
,,,X,1,,,,,,,,,,,0,1,1,0,,,,,,,,,,,,,,,,,,,,,,,,,,,,,,,,,,,,,,,,,,,,,,,,,,,,,,,,,,,,,,,,,,,,,,,,,,,,,,,,,,,,,,,,,,,,,,,,,,,,,,,,,,,333.2321956999949,334.18221950001316,1,1,333.2321956999949,334.18221950001316,334.17956730001606,None,0.7685938000213355,,,,,,,,,,,,,,,,,,,,,,,,,,,,,,,1104-t1,001,2,1,2022_Mar_21_1525,task_complete_blocked_LC_updated,2021.2.3,236.7284133294798,
,,,X,1,,,,,,,,,,,1,0,2,0,,,,,,,,,,,,,,,,,,,,,,,,,,,,,,,,,,,,,,,,,,,,,,,,,,,,,,,,,,,,,,,,,,,,,,,,,,,,,,,,,,,,,,,,,,,,,,,,,,,,,,,,,,,334.2307288000011,335.18271470000036,1,1,334.2307288000011,335.18271470000036,335.1794028999866,None,0.6529831999796443,,,,,,,,,,,,,,,,,,,,,,,,,,,,,,,1104-t1,001,2,1,2022_Mar_21_1525,task_complete_blocked_LC_updated,2021.2.3,236.7284133294798,
,,,O,2,,,,,,,,,,,1,1,3,1,,,,,,,,,,,,,,,,,,,,,,,,,,,,,,,,,,,,,,,,,,,,,,,,,,,,,,,,,,,,,,,,,,,,,,,,,,,,,,,,,,,,,,,,,,,,,,,,,,,,,,,,,,,335.2324151999783,336.18452419998357,2,1,335.2324151999783,336.18452419998357,336.1807549999794,None,0.47532790002878755,,,,,,,,,,,,,,,,,,,,,,,,,,,,,,,1104-t1,001,2,1,2022_Mar_21_1525,task_complete_blocked_LC_updated,2021.2.3,236.7284133294798,
,,,X,1,,,,,,,,,,,2,0,4,0,,,,,,,,,,,,,,,,,,,,,,,,,,,,,,,,,,,,,,,,,,,,,,,,,,,,,,,,,,,,,,,,,,,,,,,,,,,,,,,,,,,,,,,,,,,,,,,,,,,,,,,,,,,336.23205360001884,337.183684299991,1,1,336.23205360001884,337.183684299991,337.18036960001336,None,0.5126098000328057,,,,,,,,,,,,,,,,,,,,,,,,,,,,,,,1104-t1,001,2,1,2022_Mar_21_1525,task_complete_blocked_LC_updated,2021.2.3,236.7284133294798,
,,,O,2,,,,,,,,,,,2,1,5,1,,,,,,,,,,,,,,,,,,,,,,,,,,,,,,,,,,,,,,,,,,,,,,,,,,,,,,,,,,,,,,,,,,,,,,,,,,,,,,,,,,,,,,,,,,,,,,,,,,,,,,,,,,,337.23146759998053,338.1795314999763,2,1,337.23146759998053,338.1795314999763,338.1795314999763,None,0.31426150002516806,,,,,,,,,,,,,,,,,,,,,,,,,,,,,,,1104-t1,001,2,1,2022_Mar_21_1525,task_complete_blocked_LC_updated,2021.2.3,236.7284133294798,
,,,X,1,,,,,,,,,,,3,0,6,0,,,,,,,,,,,,,,,,,,,,,,,,,,,,,,,,,,,,,,,,,,,,,,,,,,,,,,,,,,,,,,,,,,,,,,,,,,,,,,,,,,,,,,,,,,,,,,,,,,,,,,,,,,,338.2346628999803,339.1831575999968,1,1,338.2346628999803,339.1831575999968,339.180157899973,None,0.36215369997080415,,,,,,,,,,,,,,,,,,,,,,,,,,,,,,,1104-t1,001,2,1,2022_Mar_21_1525,task_complete_blocked_LC_updated,2021.2.3,236.7284133294798,
,,,O,2,,,,,,,,,,,3,1,7,1,,,,,,,,,,,,,,,,,,,,,,,,,,,,,,,,,,,,,,,,,,,,,,,,,,,,,,,,,,,,,,,,,,,,,,,,,,,,,,,,,,,,,,,,,,,,,,,,,,,,,,,,,,,339.23168229998555,340.18248319998384,2,1,339.23168229998555,340.18248319998384,340.17923249996966,None,0.3101615000050515,,,,,,,,,,,,,,,,,,,,,,,,,,,,,,,1104-t1,001,2,1,2022_Mar_21_1525,task_complete_blocked_LC_updated,2021.2.3,236.7284133294798,
,,,X,1,,,,,,,,,,,4,0,8,0,,,,,,,,,,,,,,,,,,,,,,,,,,,,,,,,,,,,,,,,,,,,,,,,,,,,,,,,,,,,,,,,,,,,,,,,,,,,,,,,,,,,,,,,,,,,,,,,,,,,,,,,,,,340.2323944999953,341.18369139998686,1,1,340.2323944999953,341.18369139998686,341.18039499997394,None,0.3401661000098102,,,,,,,,,,,,,,,,,,,,,,,,,,,,,,,1104-t1,001,2,1,2022_Mar_21_1525,task_complete_blocked_LC_updated,2021.2.3,236.7284133294798,
,,,O,2,,,,,,,,,,,4,1,9,1,,,,,,,,,,,,,,,,,,,,,,,,,,,,,,,,,,,,,,,,,,,,,,,,,,,,,,,,,,,,,,,,,,,,,,,,,,,,,,,,,,,,,,,,,,,,,,,,,,,,,,,,,,,341.24226729996735,342.1937147999997,2,1,341.24226729996735,342.1937147999997,342.1841449000058,None,0.5083401000010781,,,,,,,,,,,,,,,,,,,,,,,,,,,,,,,1104-t1,001,2,1,2022_Mar_21_1525,task_complete_blocked_LC_updated,2021.2.3,236.7284133294798,
,,,O,2,,,,,,,,,,,5,0,10,1,,,,,,,,,,,,,,,,,,,,,,,,,,,,,,,,,,,,,,,,,,,,,,,,,,,,,,,,,,,,,,,,,,,,,,,,,,,,,,,,,,,,,,,,,,,,,,,,,,,,,,,,,,,342.2318290999974,343.18194659997243,2,1,342.2318290999974,343.18194659997243,343.1776032000198,None,0.5131710999994539,,,,,,,,,,,,,,,,,,,,,,,,,,,,,,,1104-t1,001,2,1,2022_Mar_21_1525,task_complete_blocked_LC_updated,2021.2.3,236.7284133294798,
,,,X,1,,,,,,,,,,,5,1,11,0,,,,,,,,,,,,,,,,,,,,,,,,,,,,,,,,,,,,,,,,,,,,,,,,,,,,,,,,,,,,,,,,,,,,,,,,,,,,,,,,,,,,,,,,,,,,,,,,,,,,,,,,,,,343.2310066000209,344.1796719999984,1,1,343.2310066000209,344.1796719999984,344.1796719999984,343.2310066000209,0.4858339999918826,,,,,,,,,,,,,,,,,,,,,,,,,,,,,,,1104-t1,001,2,1,2022_Mar_21_1525,task_complete_blocked_LC_updated,2021.2.3,236.7284133294798,
,,,X,1,,,,,,,,,,,6,0,12,0,,,,,,,,,,,,,,,,,,,,,,,,,,,,,,,,,,,,,,,,,,,,,,,,,,,,,,,,,,,,,,,,,,,,,,,,,,,,,,,,,,,,,,,,,,,,,,,,,,,,,,,,,,,344.2312000999809,345.18318920000456,1,1,344.2312000999809,345.18318920000456,345.18040219997056,None,0.4905729999882169,,,,,,,,,,,,,,,,,,,,,,,,,,,,,,,1104-t1,001,2,1,2022_Mar_21_1525,task_complete_blocked_LC_updated,2021.2.3,236.7284133294798,
,,,O,2,,,,,,,,,,,6,1,13,1,,,,,,,,,,,,,,,,,,,,,,,,,,,,,,,,,,,,,,,,,,,,,,,,,,,,,,,,,,,,,,,,,,,,,,,,,,,,,,,,,,,,,,,,,,,,,,,,,,,,,,,,,,,345.2322763999691,346.1845743000158,2,1,345.2322763999691,346.1845743000158,346.18056549999164,None,0.5591990000102669,,,,,,,,,,,,,,,,,,,,,,,,,,,,,,,1104-t1,001,2,1,2022_Mar_21_1525,task_complete_blocked_LC_updated,2021.2.3,236.7284133294798,
,,,X,1,,,,,,,,,,,7,0,14,0,,,,,,,,,,,,,,,,,,,,,,,,,,,,,,,,,,,,,,,,,,,,,,,,,,,,,,,,,,,,,,,,,,,,,,,,,,,,,,,,,,,,,,,,,,,,,,,,,,,,,,,,,,,346.23630759998923,347.18660859996453,1,1,346.23630759998923,347.18660859996453,347.1767233000137,None,0.4992111999890767,,,,,,,,,,,,,,,,,,,,,,,,,,,,,,,1104-t1,001,2,1,2022_Mar_21_1525,task_complete_blocked_LC_updated,2021.2.3,236.7284133294798,
,,,O,2,,,,,,,,,,,7,1,15,1,,,,,,,,,,,,,,,,,,,,,,,,,,,,,,,,,,,,,,,,,,,,,,,,,,,,,,,,,,,,,,,,,,,,,,,,,,,,,,,,,,,,,,,,,,,,,,,,,,,,,,,,,,,347.2295446000062,348.1777866000193,2,1,347.2295446000062,348.1777866000193,348.1777866000193,347.2295446000062,0.5009622000507079,,,,,,,,,,,,,,,,,,,,,,,,,,,,,,,1104-t1,001,2,1,2022_Mar_21_1525,task_complete_blocked_LC_updated,2021.2.3,236.7284133294798,
,,,O,2,,,,,,,,,,,8,0,16,1,,,,,,,,,,,,,,,,,,,,,,,,,,,,,,,,,,,,,,,,,,,,,,,,,,,,,,,,,,,,,,,,,,,,,,,,,,,,,,,,,,,,,,,,,,,,,,,,,,,,,,,,,,,348.2350492000114,349.18880750000244,2,1,348.2350492000114,349.18880750000244,349.1797801000066,None,0.49434309999924153,,,,,,,,,,,,,,,,,,,,,,,,,,,,,,,1104-t1,001,2,1,2022_Mar_21_1525,task_complete_blocked_LC_updated,2021.2.3,236.7284133294798,
,,,X,1,,,,,,,,,,,8,1,17,0,,,,,,,,,,,,,,,,,,,,,,,,,,,,,,,,,,,,,,,,,,,,,,,,,,,,,,,,,,,,,,,,,,,,,,,,,,,,,,,,,,,,,,,,,,,,,,,,,,,,,,,,,,,349.2305890999851,350.17785269999877,1,1,349.2305890999851,350.17785269999877,350.17785269999877,None,0.488119599991478,,,,,,,,,,,,,,,,,,,,,,,,,,,,,,,1104-t1,001,2,1,2022_Mar_21_1525,task_complete_blocked_LC_updated,2021.2.3,236.7284133294798,
,,,O,2,,,,,,,,,,,9,0,18,1,,,,,,,,,,,,,,,,,,,,,,,,,,,,,,,,,,,,,,,,,,,,,,,,,,,,,,,,,,,,,,,,,,,,,,,,,,,,,,,,,,,,,,,,,,,,,,,,,,,,,,,,,,,350.2396432000096,351.18893659999594,2,1,350.2396432000096,351.18893659999594,351.18477759999223,None,0.4718336000223644,,,,,,,,,,,,,,,,,,,,,,,,,,,,,,,1104-t1,001,2,1,2022_Mar_21_1525,task_complete_blocked_LC_updated,2021.2.3,236.7284133294798,
,,,X,1,,,,,,,,,,,9,1,19,0,,,,,,,,,,,,,,,,,,,,,,,,,,,,,,,,,,,,,,,,,,,,,,,,,,,,,,,,,,,,,,,,,,,,,,,,,,,,,,,,,,,,,,,,,,,,,,,,,,,,,,,,,,,351.23186190001434,352.1829642999801,1,1,351.23186190001434,352.1829642999801,352.1758838999667,None,0.5291463000467047,,,,,,,,,,,,,,,,,,,,,,,,,,,,,,,1104-t1,001,2,1,2022_Mar_21_1525,task_complete_blocked_LC_updated,2021.2.3,236.7284133294798,
,,,X,1,,,,,,,,,,,10,0,20,0,,,,,,,,,,,,,,,,,,,,,,,,,,,,,,,,,,,,,,,,,,,,,,,,,,,,,,,,,,,,,,,,,,,,,,,,,,,,,,,,,,,,,,,,,,,,,,,,,,,,,,,,,,,352.2321776999743,353.1830884999945,1,1,352.2321776999743,353.1830884999945,353.1794180999859,None,0.5191835999721661,,,,,,,,,,,,,,,,,,,,,,,,,,,,,,,1104-t1,001,2,1,2022_Mar_21_1525,task_complete_blocked_LC_updated,2021.2.3,236.7284133294798,
,,,O,2,,,,,,,,,,,10,1,21,1,,,,,,,,,,,,,,,,,,,,,,,,,,,,,,,,,,,,,,,,,,,,,,,,,,,,,,,,,,,,,,,,,,,,,,,,,,,,,,,,,,,,,,,,,,,,,,,,,,,,,,,,,,,353.2321111999918,354.18380060000345,2,1,353.2321111999918,354.18380060000345,354.18048169999383,None,0.5824567999807186,,,,,,,,,,,,,,,,,,,,,,,,,,,,,,,1104-t1,001,2,1,2022_Mar_21_1525,task_complete_blocked_LC_updated,2021.2.3,236.7284133294798,
,,,O,2,,,,,,,,,,,11,0,22,1,,,,,,,,,,,,,,,,,,,,,,,,,,,,,,,,,,,,,,,,,,,,,,,,,,,,,,,,,,,,,,,,,,,,,,,,,,,,,,,,,,,,,,,,,,,,,,,,,,,,,,,,,,,354.23451350000687,355.18514989997493,2,1,354.23451350000687,355.18514989997493,355.17756270000245,None,0.5919173000147566,,,,,,,,,,,,,,,,,,,,,,,,,,,,,,,1104-t1,001,2,1,2022_Mar_21_1525,task_complete_blocked_LC_updated,2021.2.3,236.7284133294798,
,,,X,1,,,,,,,,,,,11,1,23,0,,,,,,,,,,,,,,,,,,,,,,,,,,,,,,,,,,,,,,,,,,,,,,,,,,,,,,,,,,,,,,,,,,,,,,,,,,,,,,,,,,,,,,,,,,,,,,,,,,,,,,,,,,,355.23208639997756,356.18473330000415,1,1,355.23208639997756,356.18473330000415,356.18077069998253,None,0.597416200034786,,,,,,,,,,,,,,,,,,,,,,,,,,,,,,,1104-t1,001,2,1,2022_Mar_21_1525,task_complete_blocked_LC_updated,2021.2.3,236.7284133294798,
,,,O,2,,,,,,,,,,,12,0,24,1,,,,,,,,,,,,,,,,,,,,,,,,,,,,,,,,,,,,,,,,,,,,,,,,,,,,,,,,,,,,,,,,,,,,,,,,,,,,,,,,,,,,,,,,,,,,,,,,,,,,,,,,,,,356.236272500013,357.18672369996784,2,1,356.236272500013,357.18672369996784,357.18417959997896,None,0.4444232000387274,,,,,,,,,,,,,,,,,,,,,,,,,,,,,,,1104-t1,001,2,1,2022_Mar_21_1525,task_complete_blocked_LC_updated,2021.2.3,236.7284133294798,
,,,X,1,,,,,,,,,,,12,1,25,0,,,,,,,,,,,,,,,,,,,,,,,,,,,,,,,,,,,,,,,,,,,,,,,,,,,,,,,,,,,,,,,,,,,,,,,,,,,,,,,,,,,,,,,,,,,,,,,,,,,,,,,,,,,357.2309009999735,358.18226460000733,1,1,357.2309009999735,358.18226460000733,358.1799115000176,None,0.3729699999676086,,,,,,,,,,,,,,,,,,,,,,,,,,,,,,,1104-t1,001,2,1,2022_Mar_21_1525,task_complete_blocked_LC_updated,2021.2.3,236.7284133294798,
,,,X,1,,,,,,,,,,,13,0,26,0,,,,,,,,,,,,,,,,,,,,,,,,,,,,,,,,,,,,,,,,,,,,,,,,,,,,,,,,,,,,,,,,,,,,,,,,,,,,,,,,,,,,,,,,,,,,,,,,,,,,,,,,,,,358.23077630001353,359.18020609999076,1,1,358.23077630001353,359.18020609999076,359.1770206000074,None,0.7006552999955602,,,,,,,,,,,,,,,,,,,,,,,,,,,,,,,1104-t1,001,2,1,2022_Mar_21_1525,task_complete_blocked_LC_updated,2021.2.3,236.7284133294798,
,,,O,2,,,,,,,,,,,13,1,27,1,,,,,,,,,,,,,,,,,,,,,,,,,,,,,,,,,,,,,,,,,,,,,,,,,,,,,,,,,,,,,,,,,,,,,,,,,,,,,,,,,,,,,,,,,,,,,,,,,,,,,,,,,,,359.22994320001453,360.1820130000124,2,1,359.22994320001453,360.1820130000124,360.17909829999553,359.22994320001453,0.5126309000188485,,,,,,,,,,,,,,,,,,,,,,,,,,,,,,,1104-t1,001,2,1,2022_Mar_21_1525,task_complete_blocked_LC_updated,2021.2.3,236.7284133294798,
,,,X,1,,,,,,,,,,,14,0,28,0,,,,,,,,,,,,,,,,,,,,,,,,,,,,,,,,,,,,,,,,,,,,,,,,,,,,,,,,,,,,,,,,,,,,,,,,,,,,,,,,,,,,,,,,,,,,,,,,,,,,,,,,,,,360.23140390001936,361.1817364000017,1,1,360.23140390001936,361.1817364000017,361.1786131999688,None,0.5051750999991782,,,,,,,,,,,,,,,,,,,,,,,,,,,,,,,1104-t1,001,2,1,2022_Mar_21_1525,task_complete_blocked_LC_updated,2021.2.3,236.7284133294798,
,,,O,2,,,,,,,,,,,14,1,29,1,,,,,,,,,,,,,,,,,,,,,,,,,,,,,,,,,,,,,,,,,,,,,,,,,,,,,,,,,,,,,,,,,,,,,,,,,,,,,,,,,,,,,,,,,,,,,,,,,,,,,,,,,,,361.23911339999177,362.1888885999797,2,1,361.23911339999177,362.1888885999797,362.18526960001327,None,0.3637501999619417,,,,,,,,,,,,,,,,,,,,,,,,,,,,,,,1104-t1,001,2,1,2022_Mar_21_1525,task_complete_blocked_LC_updated,2021.2.3,236.7284133294798,
,,,X,1,,,,,,,,,,,15,0,30,0,,,,,,,,,,,,,,,,,,,,,,,,,,,,,,,,,,,,,,,,,,,,,,,,,,,,,,,,,,,,,,,,,,,,,,,,,,,,,,,,,,,,,,,,,,,,,,,,,,,,,,,,,,,362.2321167999762,363.1806346999947,1,1,362.2321167999762,363.1806346999947,363.17742560000625,None,0.4434832999831997,,,,,,,,,,,,,,,,,,,,,,,,,,,,,,,1104-t1,001,2,1,2022_Mar_21_1525,task_complete_blocked_LC_updated,2021.2.3,236.7284133294798,
,,,O,2,,,,,,,,,,,15,1,31,1,,,,,,,,,,,,,,,,,,,,,,,,,,,,,,,,,,,,,,,,,,,,,,,,,,,,,,,,,,,,,,,,,,,,,,,,,,,,,,,,,,,,,,,,,,,,,,,,,,,,,,,,,,,363.23269189998973,364.18144939997,2,1,363.23269189998973,364.18144939997,364.178058599995,363.23269189998973,0.3032474999781698,,,,,,,,,,,,,,,,,,,,,,,,,,,,,,,1104-t1,001,2,1,2022_Mar_21_1525,task_complete_blocked_LC_updated,2021.2.3,236.7284133294798,
,,,O,2,,,,,,,,,,,16,0,32,1,,,,,,,,,,,,,,,,,,,,,,,,,,,,,,,,,,,,,,,,,,,,,,,,,,,,,,,,,,,,,,,,,,,,,,,,,,,,,,,,,,,,,,,,,,,,,,,,,,,,,,,,,,,364.23475130001316,365.18612550001126,2,1,364.23475130001316,365.18612550001126,365.1768907000078,None,0.4669904999900609,,,,,,,,,,,,,,,,,,,,,,,,,,,,,,,1104-t1,001,2,1,2022_Mar_21_1525,task_complete_blocked_LC_updated,2021.2.3,236.7284133294798,
,,,X,1,,,,,,,,,,,16,1,33,0,,,,,,,,,,,,,,,,,,,,,,,,,,,,,,,,,,,,,,,,,,,,,,,,,,,,,,,,,,,,,,,,,,,,,,,,,,,,,,,,,,,,,,,,,,,,,,,,,,,,,,,,,,,365.22810309997294,366.17851290002,1,1,365.22810309997294,366.17851290002,366.17529340001056,365.22810309997294,0.383682299987413,,,,,,,,,,,,,,,,,,,,,,,,,,,,,,,1104-t1,001,2,1,2022_Mar_21_1525,task_complete_blocked_LC_updated,2021.2.3,236.7284133294798,
,,,X,1,,,,,,,,,,,17,0,34,0,,,,,,,,,,,,,,,,,,,,,,,,,,,,,,,,,,,,,,,,,,,,,,,,,,,,,,,,,,,,,,,,,,,,,,,,,,,,,,,,,,,,,,,,,,,,,,,,,,,,,,,,,,,366.22854500001995,367.1785199000151,1,1,366.22854500001995,367.1785199000151,367.1752833999926,366.22854500001995,0.4991511999978684,,,,,,,,,,,,,,,,,,,,,,,,,,,,,,,1104-t1,001,2,1,2022_Mar_21_1525,task_complete_blocked_LC_updated,2021.2.3,236.7284133294798,
,,,O,2,,,,,,,,,,,17,1,35,1,,,,,,,,,,,,,,,,,,,,,,,,,,,,,,,,,,,,,,,,,,,,,,,,,,,,,,,,,,,,,,,,,,,,,,,,,,,,,,,,,,,,,,,,,,,,,,,,,,,,,,,,,,,367.2340530999936,368.1858424000093,2,1,367.2340530999936,368.1858424000093,368.1809115000069,367.2340530999936,0.4933760999701917,,,,,,,,,,,,,,,,,,,,,,,,,,,,,,,1104-t1,001,2,1,2022_Mar_21_1525,task_complete_blocked_LC_updated,2021.2.3,236.7284133294798,
,,,O,2,,,,,,,,,,,18,0,36,1,,,,,,,,,,,,,,,,,,,,,,,,,,,,,,,,,,,,,,,,,,,,,,,,,,,,,,,,,,,,,,,,,,,,,,,,,,,,,,,,,,,,,,,,,,,,,,,,,,,,,,,,,,,368.2406458000187,369.1931281000143,2,1,368.2406458000187,369.1931281000143,369.1839957999764,None,0.3867776999832131,,,,,,,,,,,,,,,,,,,,,,,,,,,,,,,1104-t1,001,2,1,2022_Mar_21_1525,task_complete_blocked_LC_updated,2021.2.3,236.7284133294798,
,,,X,1,,,,,,,,,,,18,1,37,0,,,,,,,,,,,,,,,,,,,,,,,,,,,,,,,,,,,,,,,,,,,,,,,,,,,,,,,,,,,,,,,,,,,,,,,,,,,,,,,,,,,,,,,,,,,,,,,,,,,,,,,,,,,369.23154519998934,370.18058829999063,1,1,369.23154519998934,370.18058829999063,370.17694309999933,None,0.41220329998759553,,,,,,,,,,,,,,,,,,,,,,,,,,,,,,,1104-t1,001,2,1,2022_Mar_21_1525,task_complete_blocked_LC_updated,2021.2.3,236.7284133294798,
,,,O,2,,,,,,,,,,,19,0,38,1,,,,,,,,,,,,,,,,,,,,,,,,,,,,,,,,,,,,,,,,,,,,,,,,,,,,,,,,,,,,,,,,,,,,,,,,,,,,,,,,,,,,,,,,,,,,,,,,,,,,,,,,,,,370.22852659999626,371.1769260999863,2,1,370.22852659999626,371.1769260999863,371.1769260999863,370.22852659999626,0.45710469997720793,,,,,,,,,,,,,,,,,,,,,,,,,,,,,,,1104-t1,001,2,1,2022_Mar_21_1525,task_complete_blocked_LC_updated,2021.2.3,236.7284133294798,
,,,X,1,,,,,,,,,,,19,1,39,0,,,,,,,,,,,,,,,,,,,,,,,,,,,,,,,,,,,,,,,,,,,,,,,,,,,,,,,,,,,,,,,,,,,,,,,,,,,,,,,,,,,,,,,,,,,,,,,,,,,,,,,,,,,371.22985309996875,372.17955669999355,1,1,371.22985309996875,372.17955669999355,372.1759477999876,371.22985309996875,0.33595949999289587,,,,,,,,,,,,,,,,,,,,,,,,,,,,,,,1104-t1,001,2,1,2022_Mar_21_1525,task_complete_blocked_LC_updated,2021.2.3,236.7284133294798,
,,,X,1,,,,,,,,,,,20,0,40,0,,,,,,,,,,,,,,,,,,,,,,,,,,,,,,,,,,,,,,,,,,,,,,,,,,,,,,,,,,,,,,,,,,,,,,,,,,,,,,,,,,,,,,,,,,,,,,,,,,,,,,,,,,,372.22874400002183,373.1763719000155,1,1,372.22874400002183,373.1763719000155,373.1763719000155,372.22874400002183,0.46407029998954386,,,,,,,,,,,,,,,,,,,,,,,,,,,,,,,1104-t1,001,2,1,2022_Mar_21_1525,task_complete_blocked_LC_updated,2021.2.3,236.7284133294798,
,,,O,2,,,,,,,,,,,20,1,41,1,,,,,,,,,,,,,,,,,,,,,,,,,,,,,,,,,,,,,,,,,,,,,,,,,,,,,,,,,,,,,,,,,,,,,,,,,,,,,,,,,,,,,,,,,,,,,,,,,,,,,,,,,,,373.2285499999998,374.18107280001277,2,1,373.2285499999998,374.18107280001277,374.18107280001277,373.2285499999998,0.48285369999939576,,,,,,,,,,,,,,,,,,,,,,,,,,,,,,,1104-t1,001,2,1,2022_Mar_21_1525,task_complete_blocked_LC_updated,2021.2.3,236.7284133294798,
,,,O,2,,,,,,,,,,,21,0,42,1,,,,,,,,,,,,,,,,,,,,,,,,,,,,,,,,,,,,,,,,,,,,,,,,,,,,,,,,,,,,,,,,,,,,,,,,,,,,,,,,,,,,,,,,,,,,,,,,,,,,,,,,,,,374.2341170000145,375.185979700007,2,1,374.2341170000145,375.185979700007,375.1781426999951,None,0.5503538000048138,,,,,,,,,,,,,,,,,,,,,,,,,,,,,,,1104-t1,001,2,1,2022_Mar_21_1525,task_complete_blocked_LC_updated,2021.2.3,236.7284133294798,
,,,X,1,,,,,,,,,,,21,1,43,0,,,,,,,,,,,,,,,,,,,,,,,,,,,,,,,,,,,,,,,,,,,,,,,,,,,,,,,,,,,,,,,,,,,,,,,,,,,,,,,,,,,,,,,,,,,,,,,,,,,,,,,,,,,375.2315326000098,376.18075309996493,1,1,375.2315326000098,376.18075309996493,376.1783764999709,None,0.4581694999942556,,,,,,,,,,,,,,,,,,,,,,,,,,,,,,,1104-t1,001,2,1,2022_Mar_21_1525,task_complete_blocked_LC_updated,2021.2.3,236.7284133294798,
,,,X,1,,,,,,,,,,,22,0,44,0,,,,,,,,,,,,,,,,,,,,,,,,,,,,,,,,,,,,,,,,,,,,,,,,,,,,,,,,,,,,,,,,,,,,,,,,,,,,,,,,,,,,,,,,,,,,,,,,,,,,,,,,,,,376.2310066000209,377.18046299996786,1,1,376.2310066000209,377.18046299996786,377.1779678000021,None,0.4996677999733947,,,,,,,,,,,,,,,,,,,,,,,,,,,,,,,1104-t1,001,2,1,2022_Mar_21_1525,task_complete_blocked_LC_updated,2021.2.3,236.7284133294798,
,,,O,2,,,,,,,,,,,22,1,45,1,,,,,,,,,,,,,,,,,,,,,,,,,,,,,,,,,,,,,,,,,,,,,,,,,,,,,,,,,,,,,,,,,,,,,,,,,,,,,,,,,,,,,,,,,,,,,,,,,,,,,,,,,,,377.2305895999889,378.18377599999076,2,1,377.2305895999889,378.18377599999076,378.18057530000806,None,0.41621189995203167,,,,,,,,,,,,,,,,,,,,,,,,,,,,,,,1104-t1,001,2,1,2022_Mar_21_1525,task_complete_blocked_LC_updated,2021.2.3,236.7284133294798,
,,,O,2,,,,,,,,,,,23,0,46,1,,,,,,,,,,,,,,,,,,,,,,,,,,,,,,,,,,,,,,,,,,,,,,,,,,,,,,,,,,,,,,,,,,,,,,,,,,,,,,,,,,,,,,,,,,,,,,,,,,,,,,,,,,,378.23061119997874,379.1883539999835,2,1,378.23061119997874,379.1883539999835,379.17532909999136,None,0.4259089000406675,,,,,,,,,,,,,,,,,,,,,,,,,,,,,,,1104-t1,001,2,1,2022_Mar_21_1525,task_complete_blocked_LC_updated,2021.2.3,236.7284133294798,
,,,X,1,,,,,,,,,,,23,1,47,0,,,,,,,,,,,,,,,,,,,,,,,,,,,,,,,,,,,,,,,,,,,,,,,,,,,,,,,,,,,,,,,,,,,,,,,,,,,,,,,,,,,,,,,,,,,,,,,,,,,,,,,,,,,379.22958019998623,380.17827139998553,1,1,379.22958019998623,380.17827139998553,380.17827139998553,379.22958019998623,0.5595768999774009,,,,,,,,,,,,,,,,,,,,,,,,,,,,,,,1104-t1,001,2,1,2022_Mar_21_1525,task_complete_blocked_LC_updated,2021.2.3,236.7284133294798,
,,,O,2,,,,,,,,,,,24,0,48,1,,,,,,,,,,,,,,,,,,,,,,,,,,,,,,,,,,,,,,,,,,,,,,,,,,,,,,,,,,,,,,,,,,,,,,,,,,,,,,,,,,,,,,,,,,,,,,,,,,,,,,,,,,,380.2324295999715,381.18242630001623,2,1,380.2324295999715,381.18242630001623,381.17876839998644,None,0.4651898000156507,,,,,,,,,,,,,,,,,,,,,,,,,,,,,,,1104-t1,001,2,1,2022_Mar_21_1525,task_complete_blocked_LC_updated,2021.2.3,236.7284133294798,
,,,X,1,,,,,,,,,,,24,1,49,0,,,,,,,,,,,,,,,,,,,,,,,,,,,,,,,,,,,,,,,,,,,,,,,,,,,,,,,,,,,,,,,,,,,,,,,,,,,,,,,,,,,,,,,,,,,,,,,,,,,,,,,,,,,381.24581649998436,382.19868490000954,1,1,381.24581649998436,382.19868490000954,382.18813349999255,None,0.35854099999414757,,,,,,,,,,,,,,,,,,,,,,,,,,,,,,,1104-t1,001,2,1,2022_Mar_21_1525,task_complete_blocked_LC_updated,2021.2.3,236.7284133294798,
,,,X,1,,,,,,,,,,,25,0,50,0,,,,,,,,,,,,,,,,,,,,,,,,,,,,,,,,,,,,,,,,,,,,,,,,,,,,,,,,,,,,,,,,,,,,,,,,,,,,,,,,,,,,,,,,,,,,,,,,,,,,,,,,,,,382.23192400002154,383.1848959000199,1,1,382.23192400002154,383.1848959000199,383.175619799993,None,0.4095372000010684,,,,,,,,,,,,,,,,,,,,,,,,,,,,,,,1104-t1,001,2,1,2022_Mar_21_1525,task_complete_blocked_LC_updated,2021.2.3,236.7284133294798,
,,,O,2,,,,,,,,,,,25,1,51,1,,,,,,,,,,,,,,,,,,,,,,,,,,,,,,,,,,,,,,,,,,,,,,,,,,,,,,,,,,,,,,,,,,,,,,,,,,,,,,,,,,,,,,,,,,,,,,,,,,,,,,,,,,,383.2303682999918,384.17813969997223,2,1,383.2303682999918,384.17813969997223,384.17813969997223,383.2303682999918,0.5100814999896102,,,,,,,,,,,,,,,,,,,,,,,,,,,,,,,1104-t1,001,2,1,2022_Mar_21_1525,task_complete_blocked_LC_updated,2021.2.3,236.7284133294798,
,,,X,1,,,,,,,,,,,26,0,52,0,,,,,,,,,,,,,,,,,,,,,,,,,,,,,,,,,,,,,,,,,,,,,,,,,,,,,,,,,,,,,,,,,,,,,,,,,,,,,,,,,,,,,,,,,,,,,,,,,,,,,,,,,,,384.2321770999697,385.1832788999891,1,1,384.2321770999697,385.1832788999891,385.1798708999995,None,0.4013015999807976,,,,,,,,,,,,,,,,,,,,,,,,,,,,,,,1104-t1,001,2,1,2022_Mar_21_1525,task_complete_blocked_LC_updated,2021.2.3,236.7284133294798,
,,,O,2,,,,,,,,,,,26,1,53,1,,,,,,,,,,,,,,,,,,,,,,,,,,,,,,,,,,,,,,,,,,,,,,,,,,,,,,,,,,,,,,,,,,,,,,,,,,,,,,,,,,,,,,,,,,,,,,,,,,,,,,,,,,,385.23407549998956,386.1861428999691,2,1,385.23407549998956,386.1861428999691,386.1770374000189,None,0.35850570001639426,,,,,,,,,,,,,,,,,,,,,,,,,,,,,,,1104-t1,001,2,1,2022_Mar_21_1525,task_complete_blocked_LC_updated,2021.2.3,236.7284133294798,
,,,X,1,,,,,,,,,,,27,0,54,0,,,,,,,,,,,,,,,,,,,,,,,,,,,,,,,,,,,,,,,,,,,,,,,,,,,,,,,,,,,,,,,,,,,,,,,,,,,,,,,,,,,,,,,,,,,,,,,,,,,,,,,,,,,386.22881770000095,387.17940839997027,1,1,386.22881770000095,387.17940839997027,387.17593460000353,386.22881770000095,0.33553389995358884,,,,,,,,,,,,,,,,,,,,,,,,,,,,,,,1104-t1,001,2,1,2022_Mar_21_1525,task_complete_blocked_LC_updated,2021.2.3,236.7284133294798,
,,,O,2,,,,,,,,,,,27,1,55,1,,,,,,,,,,,,,,,,,,,,,,,,,,,,,,,,,,,,,,,,,,,,,,,,,,,,,,,,,,,,,,,,,,,,,,,,,,,,,,,,,,,,,,,,,,,,,,,,,,,,,,,,,,,387.2299398999894,388.1833430000115,2,1,387.2299398999894,388.1833430000115,388.1799156999914,387.2299398999894,0.447784399962984,,,,,,,,,,,,,,,,,,,,,,,,,,,,,,,1104-t1,001,2,1,2022_Mar_21_1525,task_complete_blocked_LC_updated,2021.2.3,236.7284133294798,
,,,X,1,,,,,,,,,,,28,0,56,0,,,,,,,,,,,,,,,,,,,,,,,,,,,,,,,,,,,,,,,,,,,,,,,,,,,,,,,,,,,,,,,,,,,,,,,,,,,,,,,,,,,,,,,,,,,,,,,,,,,,,,,,,,,388.2377991999965,389.18674129998544,1,1,388.2377991999965,389.18674129998544,389.18413880001754,None,0.4025911999633536,,,,,,,,,,,,,,,,,,,,,,,,,,,,,,,1104-t1,001,2,1,2022_Mar_21_1525,task_complete_blocked_LC_updated,2021.2.3,236.7284133294798,
,,,O,2,,,,,,,,,,,28,1,57,1,,,,,,,,,,,,,,,,,,,,,,,,,,,,,,,,,,,,,,,,,,,,,,,,,,,,,,,,,,,,,,,,,,,,,,,,,,,,,,,,,,,,,,,,,,,,,,,,,,,,,,,,,,,389.2313653000165,390.18079569999827,2,1,389.2313653000165,390.18079569999827,390.1774820999708,None,0.3754458000184968,,,,,,,,,,,,,,,,,,,,,,,,,,,,,,,1104-t1,001,2,1,2022_Mar_21_1525,task_complete_blocked_LC_updated,2021.2.3,236.7284133294798,
,,,X,1,,,,,,,,,,,29,0,58,0,,,,,,,,,,,,,,,,,,,,,,,,,,,,,,,,,,,,,,,,,,,,,,,,,,,,,,,,,,,,,,,,,,,,,,,,,,,,,,,,,,,,,,,,,,,,,,,,,,,,,,,,,,,390.2302366999793,391.1831957999966,1,1,390.2302366999793,391.1831957999966,391.1797871000017,390.2302366999793,0.3855218999669887,,,,,,,,,,,,,,,,,,,,,,,,,,,,,,,1104-t1,001,2,1,2022_Mar_21_1525,task_complete_blocked_LC_updated,2021.2.3,236.7284133294798,
,,,O,2,,,,,,,,,,,29,1,59,1,,,,,,,,,,,,,,,,,,,,,,,,,,,,,,,,,,,,,,,,,,,,,,,,,,,,,,,,,,,,,,,,,,,,,,,,,,,,,,,,,,,,,,,,,,,,,,,,,,,,,,,,,,,391.2289147999836,392.18367900000885,2,1,391.2289147999836,392.18367900000885,392.1793713999796,None,0.4336413000128232,,,,,,,,,,,,,,,,,,,,,,,,,,,,,,,1104-t1,001,2,1,2022_Mar_21_1525,task_complete_blocked_LC_updated,2021.2.3,236.7284133294798,
,,,,,,,,,,,,,,,,,,,,,,,,,,,,,,,,,,,,,,,,,,,,,,,,,,,,,,,,,,,,,,,,,,,,,,,,,,,,,,,,,,,,,,,,,,,,,,,,,,,,,,,,,,,,,,,,,,,,,,,,,,,,,,,,,,,,,,392.2286540999776,None,space,37.15852019999875,397.23068619996775,None,,,,,,,,,,,,,,,,,,,,,,,,,1104-t1,001,2,1,2022_Mar_21_1525,task_complete_blocked_LC_updated,2021.2.3,236.7284133294798,
,,,,,,,,,,,,,,,,,,,,,,,,,,,,,,,,,,,,,,,,,,,,,,,,,,,,,,,,,,,,,,,,,,,,,,,,,,,,,,,,,,,,,,,,,,,,,,,434.3955614999868,None,5,11.58866870001657,434.3955614999868,None,,,,,,,,,,,,,,,,,,,,,,,,,,,,,,,,,,,,,,,,397.23068619996775,None,,,,,,,,,,,,,,,,,,,,,,,1104-t1,001,2,1,2022_Mar_21_1525,task_complete_blocked_LC_updated,2021.2.3,236.7284133294798,
stimulus_images/Abottleofbat2.jpg,TIME,1,,,,,,,,,,,,,,,,,0,0,0,6,,,,,,,,,,,,,,,,,,,,,,,,,,,,,,,,,,,,,,,,,,,,,,,,,,,,,,,,,,,,,,,,,,,,,,,,,,,,,,,2.5999615900218487e-06,446.01558940001996,448.0183459999971,446.01558940001996,448.0183459999971,447.0105466999812,448.0144515999709,447.0105466999812,448.0144515999709,448.01036939996993,None,5.987341599946376,451.9978014000226,None,451.9978014000226,None,1,0.5929583999677561,451.9978014000226,None,457.9978049999918,None,,,,,,,,,,,,,,,,,,,,,,,,,,,,,,,,,,,,,,,,,,1104-t1,001,2,1,2022_Mar_21_1525,task_complete_blocked_LC_updated,2021.2.3,236.7284133294798,
stimulus_images/ADRYWOOD.jpg,TIME,0,,,,,,,,,,,,,,,,,0,1,1,9,,,,,,,,,,,,,,,,,,,,,,,,,,,,,,,,,,,,,,,,,,,,,,,,,,,,,,,,,,,,,,,,,,,,,,,,,,,,,,,13.989313400001265,460.00313899997855,462.00393559999065,460.00313899997855,462.00393559999065,460.99556579999626,462.0009643000085,460.99556579999626,462.0009643000085,462.0009643000085,None,19.991295099956915,466.00168489996577,None,466.00168489996577,None,2,0.9259100999915972,466.00168489996577,None,472.00100139999995,None,,,,,,,,,,,,,,,,,,,,,,,,,,,,,,,,,,,,,,,,,,1104-t1,001,2,1,2022_Mar_21_1525,task_complete_blocked_LC_updated,2021.2.3,236.7284133294798,
stimulus_images/ABALLBEAR.jpg,TIME,0,,,,,,,,,,,,,,,,,0,2,2,4,,,,,,,,,,,,,,,,,,,,,,,,,,,,,,,,,,,,,,,,,,,,,,,,,,,,,,,,,,,,,,,,,,,,,,,,,,,,,,,26.993391899974085,473.00800510001136,475.0076224000077,473.00800510001136,475.0076224000077,474.0019883000059,475.0045602999744,474.0019883000059,475.0045602999744,475.0045602999744,None,32.99558599997545,479.0071143999812,None,479.0071143999812,None,1,1.3793680000235327,479.0071143999812,None,485.00874740001746,None,,,,,,,,,,,,,,,,,,,,,,,,,,,,,,,,,,,,,,,,,,1104-t1,001,2,1,2022_Mar_21_1525,task_complete_blocked_LC_updated,2021.2.3,236.7284133294798,
stimulus_images/A56THUND4.jpg,TIME,0,,,,,,,,,,,,,,,,,0,3,3,1,,,,,,,,,,,,,,,,,,,,,,,,,,,,,,,,,,,,,,,,,,,,,,,,,,,,,,,,,,,,,,,,,,,,,,,,,,,,,,,40.00128829997266,486.0148141999962,488.01415760000236,486.0148141999962,488.01415760000236,487.0197993000038,488.02117459999863,487.0197993000038,488.02117459999863,488.0099795999704,None,46.001256299961824,492.01165080000646,None,492.01165080000646,None,3,2.3346539000049233,492.01165080000646,None,498.01357339997776,None,,,,,,,,,,,,,,,,,,,,,,,,,,,,,,,,,,,,,,,,,,1104-t1,001,2,1,2022_Mar_21_1525,task_complete_blocked_LC_updated,2021.2.3,236.7284133294798,
stimulus_images/Acocktailumb4.jpg,TIME,0,,,,,,,,,,,,,,,,,0,4,4,8,,,,,,,,,,,,,,,,,,,,,,,,,,,,,,,,,,,,,,,,,,,,,,,,,,,,,,,,,,,,,,,,,,,,,,,,,,,,,,,53.0059832999832,499.0201685000211,501.0257161000045,499.0201685000211,501.0257161000045,500.0158730999683,501.0215014999849,500.0158730999683,501.0215014999849,501.0215014999849,None,59.00889139994979,505.01995260000695,None,505.01995260000695,None,3,1.7681276999646798,505.01995260000695,None,511.0233212999883,None,,,,,,,,,,,,,,,,,,,,,,,,,,,,,,,,,,,,,,,,,,1104-t1,001,2,1,2022_Mar_21_1525,task_complete_blocked_LC_updated,2021.2.3,236.7284133294798,
stimulus_images/ACANDLE30.jpg,TIME,0,,,,,,,,,,,,,,,,,0,5,5,7,,,,,,,,,,,,,,,,,,,,,,,,,,,,,,,,,,,,,,,,,,,,,,,,,,,,,,,,,,,,,,,,,,,,,,,,,,,,,,,68.01411579997512,514.0276102999924,516.0287706999807,514.0276102999924,516.0287706999807,515.0223650999833,516.0213641999871,515.0223650999833,516.0213641999871,516.0213641999871,None,74.01241119997576,520.0237583999988,None,520.0237583999988,None,2,2.0682900000247173,520.0237583999988,None,526.0279649000149,None,,,,,,,,,,,,,,,,,,,,,,,,,,,,,,,,,,,,,,,,,,1104-t1,001,2,1,2022_Mar_21_1525,task_complete_blocked_LC_updated,2021.2.3,236.7284133294798,
stimulus_images/A_coin.jpg,TIME,0,,,,,,,,,,,,,,,,,0,6,6,0,,,,,,,,,,,,,,,,,,,,,,,,,,,,,,,,,,,,,,,,,,,,,,,,,,,,,,,,,,,,,,,,,,,,,,,,,,,,,,,82.01863849995425,528.0395268999855,530.0470036999905,528.0395268999855,530.0470036999905,529.0312208000105,530.0327346000122,529.0312208000105,530.0327346000122,530.0327346000122,None,88.01952459994936,534.029729300004,None,534.029729300004,None,2,1.5946151000098325,534.029729300004,None,540.0301727000042,None,,,,,,,,,,,,,,,,,,,,,,,,,,,,,,,,,,,,,,,,,,1104-t1,001,2,1,2022_Mar_21_1525,task_complete_blocked_LC_updated,2021.2.3,236.7284133294798,
stimulus_images/Aammonitefo14.jpg,TIME,1,,,,,,,,,,,,,,,,,0,7,7,2,,,,,,,,,,,,,,,,,,,,,,,,,,,,,,,,,,,,,,,,,,,,,,,,,,,,,,,,,,,,,,,,,,,,,,,,,,,,,,,96.02227249997668,542.0431776000187,544.041432900005,542.0431776000187,544.041432900005,543.0423959000036,544.041432900005,543.0423959000036,544.041432900005,544.0390202999697,None,102.02515789994504,548.036643999978,None,548.036643999978,None,2,1.6443667000276037,548.036643999978,None,554.0380511999829,None,,,,,,,,,,,,,,,,,,,,,,,,,,,,,,,,,,,,,,,,,,1104-t1,001,2,1,2022_Mar_21_1525,task_complete_blocked_LC_updated,2021.2.3,236.7284133294798,
stimulus_images/AARCCHAR2.jpg,TIME,0,,,,,,,,,,,,,,,,,0,8,8,3,,,,,,,,,,,,,,,,,,,,,,,,,,,,,,,,,,,,,,,,,,,,,,,,,,,,,,,,,,,,,,,,,,,,,,,,,,,,,,,110.03078419994563,556.045263100008,558.048297900008,556.045263100008,558.048297900008,557.0405692000058,558.0398725999985,557.0405692000058,558.0398725999985,558.0398725999985,None,116.03078489995096,562.0412237999844,None,562.0412237999844,None,1,0.47191229998134077,562.0412237999844,None,568.0417914999998,None,,,,,,,,,,,,,,,,,,,,,,,,,,,,,,,,,,,,,,,,,,1104-t1,001,2,1,2022_Mar_21_1525,task_complete_blocked_LC_updated,2021.2.3,236.7284133294798,
stimulus_images/Abeaver.jpg,TIME,0,,,,,,,,,,,,,,,,,0,9,9,5,,,,,,,,,,,,,,,,,,,,,,,,,,,,,,,,,,,,,,,,,,,,,,,,,,,,,,,,,,,,,,,,,,,,,,,,,,,,,,,124.03549759997986,570.0509983999655,572.0524669999722,570.0509983999655,572.0524669999722,571.0486973000225,572.0485279000131,571.0486973000225,572.0485279000131,572.0485279000131,None,130.03807709994726,576.0484354000073,None,576.0484354000073,None,1,1.0146958999685012,576.0484354000073,None,582.046889099991,None,,,,,,,,,,,,,,,,,,,,,,,,,,,,,,,,,,,,,,,,,,1104-t1,001,2,1,2022_Mar_21_1525,task_complete_blocked_LC_updated,2021.2.3,236.7284133294798,
stimulus_images/Aribbon21.jpg,TIME,0,,,,,,,,,,,,,,,,,,,,,0,0,0,3,,,,,,,,,,,,,,,,,,,,,,,,,,,,,,,,,,,,,,,,,,,,,,,,,,,,,,,,,,,,,,,,,,,,,,,,,,,137.04540819994872,583.0597451999784,585.0606578000006,583.0597451999784,585.0606578000006,584.0566141000018,585.056965900003,584.0566141000018,585.056965900003,585.056965900003,None,143.04200539999874,589.052963199967,None,589.052963199967,None,2,1.7531879999442026,589.052963199967,None,595.0525806000223,None,,,,,,,,,,,,,,,,,,,,,,,,,,,,,,,,,,,,,,,,,,1104-t1,001,2,1,2022_Mar_21_1525,task_complete_blocked_LC_updated,2021.2.3,236.7284133294798,
stimulus_images/AHIGCHAIR.jpg,TIME,0,,,,,,,,,,,,,,,,,,,,,0,1,1,1,,,,,,,,,,,,,,,,,,,,,,,,,,,,,,,,,,,,,,,,,,,,,,,,,,,,,,,,,,,,,,,,,,,,,,,,,,,151.04290099994978,597.0560985999764,599.0628382000141,597.0560985999764,599.0628382000141,598.0486330999993,599.0572685999796,598.0486330999993,599.0572685999796,599.0572685999796,None,157.04620529996464,603.0565176999662,None,603.0565176999662,None,2,1.5832705000066198,603.0565176999662,None,609.0567501999903,None,,,,,,,,,,,,,,,,,,,,,,,,,,,,,,,,,,,,,,,,,,1104-t1,001,2,1,2022_Mar_21_1525,task_complete_blocked_LC_updated,2021.2.3,236.7284133294798,
stimulus_images/AMUSISTA2.jpg,TIME,0,,,,,,,,,,,,,,,,,,,,,0,2,2,2,,,,,,,,,,,,,,,,,,,,,,,,,,,,,,,,,,,,,,,,,,,,,,,,,,,,,,,,,,,,,,,,,,,,,,,,,,,166.0490891999798,612.0714303000132,614.0705581000075,612.0714303000132,614.0705581000075,613.0657188000041,614.0679764999659,613.0657188000041,614.0679764999659,614.0679764999659,None,172.0505501999869,618.0620376999723,None,618.0620376999723,None,2,1.2167555000050925,618.0620376999723,None,624.0618378000217,None,,,,,,,,,,,,,,,,,,,,,,,,,,,,,,,,,,,,,,,,,,1104-t1,001,2,1,2022_Mar_21_1525,task_complete_blocked_LC_updated,2021.2.3,236.7284133294798,
stimulus_images/beanbagchair.jpg,TIME,0,,,,,,,,,,,,,,,,,,,,,0,3,3,5,,,,,,,,,,,,,,,,,,,,,,,,,,,,,,,,,,,,,,,,,,,,,,,,,,,,,,,,,,,,,,,,,,,,,,,,,,,179.05631599994376,625.0757385999896,627.0764295000117,625.0757385999896,627.0764295000117,626.0734422999667,627.0734371999861,626.0734422999667,627.0734371999861,627.0734371999861,None,185.058627899969,631.0690590000013,None,631.0690590000013,None,3,1.2997200000099838,631.0690590000013,None,637.0699357999838,None,,,,,,,,,,,,,,,,,,,,,,,,,,,,,,,,,,,,,,,,,,1104-t1,001,2,1,2022_Mar_21_1525,task_complete_blocked_LC_updated,2021.2.3,236.7284133294798,
stimulus_images/Astereo30.jpg,TIME,1,,,,,,,,,,,,,,,,,,,,,0,4,4,4,,,,,,,,,,,,,,,,,,,,,,,,,,,,,,,,,,,,,,,,,,,,,,,,,,,,,,,,,,,,,,,,,,,,,,,,,,,193.060277499957,639.0742264,641.0733464999939,639.0742264,641.0733464999939,640.0701057999977,641.0698114999686,640.0701057999977,641.0698114999686,641.0698114999686,None,199.06055169994943,645.0708231999888,None,645.0708231999888,None,1,0.6178059999947436,645.0708231999888,None,651.0716003999696,None,,,,,,,,,,,,,,,,,,,,,,,,,,,,,,,,,,,,,,,,,,1104-t1,001,2,1,2022_Mar_21_1525,task_complete_blocked_LC_updated,2021.2.3,236.7284133294798,
stimulus_images/AGLASSFL4.jpg,TIME,1,,,,,,,,,,,,,,,,,,,,,0,5,5,0,,,,,,,,,,,,,,,,,,,,,,,,,,,,,,,,,,,,,,,,,,,,,,,,,,,,,,,,,,,,,,,,,,,,,,,,,,,206.06431349995546,652.0780212999671,654.077591600013,652.0780212999671,654.077591600013,653.0744183000061,654.0735030000214,653.0744183000061,654.0735030000214,654.0735030000214,None,212.06507829995826,658.0763656999916,None,658.0763656999916,None,3,0.8503132999758236,658.0763656999916,None,664.0787257999764,None,,,,,,,,,,,,,,,,,,,,,,,,,,,,,,,,,,,,,,,,,,1104-t1,001,2,1,2022_Mar_21_1525,task_complete_blocked_LC_updated,2021.2.3,236.7284133294798,
stimulus_images/AABSTRACT.jpg,TIME,1,,,,,,,,,,,,,,,,,,,,,0,6,6,8,,,,,,,,,,,,,,,,,,,,,,,,,,,,,,,,,,,,,,,,,,,,,,,,,,,,,,,,,,,,,,,,,,,,,,,,,,,220.0691841999651,666.0838433000026,668.0861423999886,666.0838433000026,668.0861423999886,667.0776450000121,668.0786248999648,667.0776450000121,668.0786248999648,668.0786248999648,None,226.07147669995902,672.0816500000074,None,672.0816500000074,None,2,1.4370220999699086,672.0816500000074,None,678.08354219998,None,,,,,,,,,,,,,,,,,,,,,,,,,,,,,,,,,,,,,,,,,,1104-t1,001,2,1,2022_Mar_21_1525,task_complete_blocked_LC_updated,2021.2.3,236.7284133294798,
stimulus_images/Aancientston3.jpg,TIME,0,,,,,,,,,,,,,,,,,,,,,0,7,7,9,,,,,,,,,,,,,,,,,,,,,,,,,,,,,,,,,,,,,,,,,,,,,,,,,,,,,,,,,,,,,,,,,,,,,,,,,,,235.07706929999404,681.090753299999,683.0904957000166,681.090753299999,683.0904957000166,682.0870570999687,683.0874898000038,682.0870570999687,683.0874898000038,683.0836544000194,None,241.07839829998557,687.0888462999719,None,687.0888462999719,None,1,0.7482085999799892,687.0888462999719,None,693.0922825000016,None,,,,,,,,,,,,,,,,,,,,,,,,,,,,,,,,,,,,,,,,,,1104-t1,001,2,1,2022_Mar_21_1525,task_complete_blocked_LC_updated,2021.2.3,236.7284133294798,
stimulus_images/A_flower.jpg,TIME,0,,,,,,,,,,,,,,,,,,,,,0,8,8,7,,,,,,,,,,,,,,,,,,,,,,,,,,,,,,,,,,,,,,,,,,,,,,,,,,,,,,,,,,,,,,,,,,,,,,,,,,,250.08563989994582,696.0988657000125,698.0989810000174,696.0988657000125,698.0989810000174,697.0926152999746,698.0957565999706,697.0926152999746,698.0957565999706,698.0957565999706,None,256.0861547999666,702.0967293999856,None,702.0967293999856,None,2,0.9918751000077464,702.0967293999856,None,708.0973945999867,None,,,,,,,,,,,,,,,,,,,,,,,,,,,,,,,,,,,,,,,,,,1104-t1,001,2,1,2022_Mar_21_1525,task_complete_blocked_LC_updated,2021.2.3,236.7284133294798,
stimulus_images/weddingdress.jpg,TIME,0,,,,,,,,,,,,,,,,,,,,,0,9,9,6,,,,,,,,,,,,,,,,,,,,,,,,,,,,,,,,,,,,,,,,,,,,,,,,,,,,,,,,,,,,,,,,,,,,,,,,,,,265.0892887999653,711.1042516999878,713.105728399998,711.1042516999878,713.105728399998,712.0985376000172,713.1021289000055,712.0985376000172,713.1021289000055,713.0980416999664,None,271.0894837999949,717.0997672000085,None,717.0997672000085,None,2,2.066765299998224,717.0997672000085,None,723.1030506999814,None,,,,,,,,,,,,,,,,,,,,,,,,,,,,,,,,,,,,,,,,,,1104-t1,001,2,1,2022_Mar_21_1525,task_complete_blocked_LC_updated,2021.2.3,236.7284133294798,
,,,O,2,,,,,,,,,,,,,,,,,,,,,,,0,0,0,1,,,,,,,,,,,,,,,,,,,,,,,,,,,,,,,,,,,,,,,,,,,,,,,,,,,,,,,,,,,,,,,,,,,,,,,,,,,,,,,,,,,,,,,,,,,,,726.1044931000215,None,729.1152417999692,730.0679208000074,2,1,729.1152417999692,730.0679208000074,730.0585222999798,None,0.6985490000224672,,,,,,,,,,,,,,,,,,,,,,,,,,,,,,,1104-t1,001,2,1,2022_Mar_21_1525,task_complete_blocked_LC_updated,2021.2.3,236.7284133294798,
,,,X,1,,,,,,,,,,,,,,,,,,,,,,,0,1,1,0,,,,,,,,,,,,,,,,,,,,,,,,,,,,,,,,,,,,,,,,,,,,,,,,,,,,,,,,,,,,,,,,,,,,,,,,,,,,,,,,,,,,,,,,,,,,,,,730.1091715000221,731.0613123999792,1,1,730.1091715000221,731.0613123999792,731.0572461999836,None,0.5980313000036404,,,,,,,,,,,,,,,,,,,,,,,,,,,,,,,1104-t1,001,2,1,2022_Mar_21_1525,task_complete_blocked_LC_updated,2021.2.3,236.7284133294798,
,,,O,2,,,,,,,,,,,,,,,,,,,,,,,1,0,2,1,,,,,,,,,,,,,,,,,,,,,,,,,,,,,,,,,,,,,,,,,,,,,,,,,,,,,,,,,,,,,,,,,,,,,,,,,,,,,,,,,,,,,,,,,,,,,,,731.109000299999,732.0611615999951,2,1,731.109000299999,732.0611615999951,732.0582121000043,None,0.331884799990803,,,,,,,,,,,,,,,,,,,,,,,,,,,,,,,1104-t1,001,2,1,2022_Mar_21_1525,task_complete_blocked_LC_updated,2021.2.3,236.7284133294798,
,,,X,1,,,,,,,,,,,,,,,,,,,,,,,1,1,3,0,,,,,,,,,,,,,,,,,,,,,,,,,,,,,,,,,,,,,,,,,,,,,,,,,,,,,,,,,,,,,,,,,,,,,,,,,,,,,,,,,,,,,,,,,,,,,,,732.1085117000039,733.0593637999846,1,1,732.1085117000039,733.0593637999846,733.0593637999846,None,0.33262010000180453,,,,,,,,,,,,,,,,,,,,,,,,,,,,,,,1104-t1,001,2,1,2022_Mar_21_1525,task_complete_blocked_LC_updated,2021.2.3,236.7284133294798,
,,,O,2,,,,,,,,,,,,,,,,,,,,,,,2,0,4,1,,,,,,,,,,,,,,,,,,,,,,,,,,,,,,,,,,,,,,,,,,,,,,,,,,,,,,,,,,,,,,,,,,,,,,,,,,,,,,,,,,,,,,,,,,,,,,,733.1085492999991,734.0584933999926,2,1,733.1085492999991,734.0584933999926,734.0549196000211,None,0.40613809996284544,,,,,,,,,,,,,,,,,,,,,,,,,,,,,,,1104-t1,001,2,1,2022_Mar_21_1525,task_complete_blocked_LC_updated,2021.2.3,236.7284133294798,
,,,X,1,,,,,,,,,,,,,,,,,,,,,,,2,1,5,0,,,,,,,,,,,,,,,,,,,,,,,,,,,,,,,,,,,,,,,,,,,,,,,,,,,,,,,,,,,,,,,,,,,,,,,,,,,,,,,,,,,,,,,,,,,,,,,734.1080529000028,735.0596313999849,1,1,734.1080529000028,735.0596313999849,735.0572894000215,None,0.33677069999976084,,,,,,,,,,,,,,,,,,,,,,,,,,,,,,,1104-t1,001,2,1,2022_Mar_21_1525,task_complete_blocked_LC_updated,2021.2.3,236.7284133294798,
,,,X,1,,,,,,,,,,,,,,,,,,,,,,,3,0,6,0,,,,,,,,,,,,,,,,,,,,,,,,,,,,,,,,,,,,,,,,,,,,,,,,,,,,,,,,,,,,,,,,,,,,,,,,,,,,,,,,,,,,,,,,,,,,,,,735.1112601999776,736.0624057999812,1,1,735.1112601999776,736.0624057999812,736.0534915999742,None,0.3584506000042893,,,,,,,,,,,,,,,,,,,,,,,,,,,,,,,1104-t1,001,2,1,2022_Mar_21_1525,task_complete_blocked_LC_updated,2021.2.3,236.7284133294798,
,,,O,2,,,,,,,,,,,,,,,,,,,,,,,3,1,7,1,,,,,,,,,,,,,,,,,,,,,,,,,,,,,,,,,,,,,,,,,,,,,,,,,,,,,,,,,,,,,,,,,,,,,,,,,,,,,,,,,,,,,,,,,,,,,,,736.1056245000218,737.0594158999738,2,1,736.1056245000218,737.0594158999738,737.0548199000186,736.1056245000218,0.3637598999775946,,,,,,,,,,,,,,,,,,,,,,,,,,,,,,,1104-t1,001,2,1,2022_Mar_21_1525,task_complete_blocked_LC_updated,2021.2.3,236.7284133294798,
,,,X,1,,,,,,,,,,,,,,,,,,,,,,,4,0,8,0,,,,,,,,,,,,,,,,,,,,,,,,,,,,,,,,,,,,,,,,,,,,,,,,,,,,,,,,,,,,,,,,,,,,,,,,,,,,,,,,,,,,,,,,,,,,,,,737.1092491999734,738.056968400022,1,1,737.1092491999734,738.056968400022,738.0543940999778,None,0.4545355000300333,,,,,,,,,,,,,,,,,,,,,,,,,,,,,,,1104-t1,001,2,1,2022_Mar_21_1525,task_complete_blocked_LC_updated,2021.2.3,236.7284133294798,
,,,O,2,,,,,,,,,,,,,,,,,,,,,,,4,1,9,1,,,,,,,,,,,,,,,,,,,,,,,,,,,,,,,,,,,,,,,,,,,,,,,,,,,,,,,,,,,,,,,,,,,,,,,,,,,,,,,,,,,,,,,,,,,,,,,738.1124562000041,739.0622000999865,2,1,738.1124562000041,739.0622000999865,739.0592207000009,None,0.3712697000009939,,,,,,,,,,,,,,,,,,,,,,,,,,,,,,,1104-t1,001,2,1,2022_Mar_21_1525,task_complete_blocked_LC_updated,2021.2.3,236.7284133294798,
,,,O,2,,,,,,,,,,,,,,,,,,,,,,,5,0,10,1,,,,,,,,,,,,,,,,,,,,,,,,,,,,,,,,,,,,,,,,,,,,,,,,,,,,,,,,,,,,,,,,,,,,,,,,,,,,,,,,,,,,,,,,,,,,,,,739.1072729000007,740.0560148999793,2,1,739.1072729000007,740.0560148999793,740.0524905999773,None,0.44234720000531524,,,,,,,,,,,,,,,,,,,,,,,,,,,,,,,1104-t1,001,2,1,2022_Mar_21_1525,task_complete_blocked_LC_updated,2021.2.3,236.7284133294798,
,,,X,1,,,,,,,,,,,,,,,,,,,,,,,5,1,11,0,,,,,,,,,,,,,,,,,,,,,,,,,,,,,,,,,,,,,,,,,,,,,,,,,,,,,,,,,,,,,,,,,,,,,,,,,,,,,,,,,,,,,,,,,,,,,,,740.1153818999883,741.0702160000219,1,1,740.1153818999883,741.0702160000219,741.0625678999932,None,0.37711249996209517,,,,,,,,,,,,,,,,,,,,,,,,,,,,,,,1104-t1,001,2,1,2022_Mar_21_1525,task_complete_blocked_LC_updated,2021.2.3,236.7284133294798,
,,,O,2,,,,,,,,,,,,,,,,,,,,,,,6,0,12,1,,,,,,,,,,,,,,,,,,,,,,,,,,,,,,,,,,,,,,,,,,,,,,,,,,,,,,,,,,,,,,,,,,,,,,,,,,,,,,,,,,,,,,,,,,,,,,,741.1086225999752,742.0633690999821,2,1,741.1086225999752,742.0633690999821,742.053042399988,None,0.4441412999876775,,,,,,,,,,,,,,,,,,,,,,,,,,,,,,,1104-t1,001,2,1,2022_Mar_21_1525,task_complete_blocked_LC_updated,2021.2.3,236.7284133294798,
,,,X,1,,,,,,,,,,,,,,,,,,,,,,,6,1,13,0,,,,,,,,,,,,,,,,,,,,,,,,,,,,,,,,,,,,,,,,,,,,,,,,,,,,,,,,,,,,,,,,,,,,,,,,,,,,,,,,,,,,,,,,,,,,,,,742.1069294000044,743.0599687999929,1,1,742.1069294000044,743.0599687999929,743.0566843000124,742.1069294000044,0.3718957999954,,,,,,,,,,,,,,,,,,,,,,,,,,,,,,,1104-t1,001,2,1,2022_Mar_21_1525,task_complete_blocked_LC_updated,2021.2.3,236.7284133294798,
,,,X,1,,,,,,,,,,,,,,,,,,,,,,,7,0,14,0,,,,,,,,,,,,,,,,,,,,,,,,,,,,,,,,,,,,,,,,,,,,,,,,,,,,,,,,,,,,,,,,,,,,,,,,,,,,,,,,,,,,,,,,,,,,,,,743.1072494999971,744.0570880000014,1,1,743.1072494999971,744.0570880000014,744.0537354999688,None,0.3765760000096634,,,,,,,,,,,,,,,,,,,,,,,,,,,,,,,1104-t1,001,2,1,2022_Mar_21_1525,task_complete_blocked_LC_updated,2021.2.3,236.7284133294798,
,,,O,2,,,,,,,,,,,,,,,,,,,,,,,7,1,15,1,,,,,,,,,,,,,,,,,,,,,,,,,,,,,,,,,,,,,,,,,,,,,,,,,,,,,,,,,,,,,,,,,,,,,,,,,,,,,,,,,,,,,,,,,,,,,,,744.1103526999941,745.0598583999672,2,1,744.1103526999941,745.0598583999672,745.0571674999665,744.1103526999941,0.3261140999966301,,,,,,,,,,,,,,,,,,,,,,,,,,,,,,,1104-t1,001,2,1,2022_Mar_21_1525,task_complete_blocked_LC_updated,2021.2.3,236.7284133294798,
,,,X,1,,,,,,,,,,,,,,,,,,,,,,,8,0,16,0,,,,,,,,,,,,,,,,,,,,,,,,,,,,,,,,,,,,,,,,,,,,,,,,,,,,,,,,,,,,,,,,,,,,,,,,,,,,,,,,,,,,,,,,,,,,,,,745.1076324000023,746.060439599969,1,1,745.1076324000023,746.060439599969,746.0572123000165,None,0.4227333999588154,,,,,,,,,,,,,,,,,,,,,,,,,,,,,,,1104-t1,001,2,1,2022_Mar_21_1525,task_complete_blocked_LC_updated,2021.2.3,236.7284133294798,
,,,O,2,,,,,,,,,,,,,,,,,,,,,,,8,1,17,1,,,,,,,,,,,,,,,,,,,,,,,,,,,,,,,,,,,,,,,,,,,,,,,,,,,,,,,,,,,,,,,,,,,,,,,,,,,,,,,,,,,,,,,,,,,,,,,746.108646299981,747.0580259999842,2,1,746.108646299981,747.0580259999842,747.0545410999912,None,0.5377933999989182,,,,,,,,,,,,,,,,,,,,,,,,,,,,,,,1104-t1,001,2,1,2022_Mar_21_1525,task_complete_blocked_LC_updated,2021.2.3,236.7284133294798,
,,,O,2,,,,,,,,,,,,,,,,,,,,,,,9,0,18,1,,,,,,,,,,,,,,,,,,,,,,,,,,,,,,,,,,,,,,,,,,,,,,,,,,,,,,,,,,,,,,,,,,,,,,,,,,,,,,,,,,,,,,,,,,,,,,,747.1075900999713,748.0615460000117,2,1,747.1075900999713,748.0615460000117,748.0522540999809,None,0.42118060000939295,,,,,,,,,,,,,,,,,,,,,,,,,,,,,,,1104-t1,001,2,1,2022_Mar_21_1525,task_complete_blocked_LC_updated,2021.2.3,236.7284133294798,
,,,X,1,,,,,,,,,,,,,,,,,,,,,,,9,1,19,0,,,,,,,,,,,,,,,,,,,,,,,,,,,,,,,,,,,,,,,,,,,,,,,,,,,,,,,,,,,,,,,,,,,,,,,,,,,,,,,,,,,,,,,,,,,,,,,748.1063865000033,749.0562523999834,1,1,748.1063865000033,749.0562523999834,749.0562523999834,748.1063865000033,0.3544148000073619,,,,,,,,,,,,,,,,,,,,,,,,,,,,,,,1104-t1,001,2,1,2022_Mar_21_1525,task_complete_blocked_LC_updated,2021.2.3,236.7284133294798,
,,,X,1,,,,,,,,,,,,,,,,,,,,,,,10,0,20,0,,,,,,,,,,,,,,,,,,,,,,,,,,,,,,,,,,,,,,,,,,,,,,,,,,,,,,,,,,,,,,,,,,,,,,,,,,,,,,,,,,,,,,,,,,,,,,,749.1074813000159,750.0596451999736,1,1,749.1074813000159,750.0596451999736,750.0565557999653,None,0.3240421999944374,,,,,,,,,,,,,,,,,,,,,,,,,,,,,,,1104-t1,001,2,1,2022_Mar_21_1525,task_complete_blocked_LC_updated,2021.2.3,236.7284133294798,
,,,O,2,,,,,,,,,,,,,,,,,,,,,,,10,1,21,1,,,,,,,,,,,,,,,,,,,,,,,,,,,,,,,,,,,,,,,,,,,,,,,,,,,,,,,,,,,,,,,,,,,,,,,,,,,,,,,,,,,,,,,,,,,,,,,750.1082507999963,751.060419699992,2,1,750.1082507999963,751.060419699992,751.0570316999801,None,0.34545510000316426,,,,,,,,,,,,,,,,,,,,,,,,,,,,,,,1104-t1,001,2,1,2022_Mar_21_1525,task_complete_blocked_LC_updated,2021.2.3,236.7284133294798,
,,,X,1,,,,,,,,,,,,,,,,,,,,,,,11,0,22,0,,,,,,,,,,,,,,,,,,,,,,,,,,,,,,,,,,,,,,,,,,,,,,,,,,,,,,,,,,,,,,,,,,,,,,,,,,,,,,,,,,,,,,,,,,,,,,,751.1091162000084,752.0625441999873,1,1,751.1091162000084,752.0625441999873,752.0590442999965,None,0.45536389999324456,,,,,,,,,,,,,,,,,,,,,,,,,,,,,,,1104-t1,001,2,1,2022_Mar_21_1525,task_complete_blocked_LC_updated,2021.2.3,236.7284133294798,
,,,O,2,,,,,,,,,,,,,,,,,,,,,,,11,1,23,1,,,,,,,,,,,,,,,,,,,,,,,,,,,,,,,,,,,,,,,,,,,,,,,,,,,,,,,,,,,,,,,,,,,,,,,,,,,,,,,,,,,,,,,,,,,,,,,752.1089566000155,753.0570203000098,2,1,752.1089566000155,753.0570203000098,753.0542944999761,None,0.5265326999942772,,,,,,,,,,,,,,,,,,,,,,,,,,,,,,,1104-t1,001,2,1,2022_Mar_21_1525,task_complete_blocked_LC_updated,2021.2.3,236.7284133294798,
,,,O,2,,,,,,,,,,,,,,,,,,,,,,,12,0,24,1,,,,,,,,,,,,,,,,,,,,,,,,,,,,,,,,,,,,,,,,,,,,,,,,,,,,,,,,,,,,,,,,,,,,,,,,,,,,,,,,,,,,,,,,,,,,,,,753.11146559997,754.0662807999761,2,1,753.11146559997,754.0662807999761,754.0613181999652,None,0.4979888999951072,,,,,,,,,,,,,,,,,,,,,,,,,,,,,,,1104-t1,001,2,1,2022_Mar_21_1525,task_complete_blocked_LC_updated,2021.2.3,236.7284133294798,
,,,X,1,,,,,,,,,,,,,,,,,,,,,,,12,1,25,0,,,,,,,,,,,,,,,,,,,,,,,,,,,,,,,,,,,,,,,,,,,,,,,,,,,,,,,,,,,,,,,,,,,,,,,,,,,,,,,,,,,,,,,,,,,,,,,754.108513300016,755.0624032000196,1,1,754.108513300016,755.0624032000196,755.0531872999854,None,0.38400700001511723,,,,,,,,,,,,,,,,,,,,,,,,,,,,,,,1104-t1,001,2,1,2022_Mar_21_1525,task_complete_blocked_LC_updated,2021.2.3,236.7284133294798,
,,,O,2,,,,,,,,,,,,,,,,,,,,,,,13,0,26,1,,,,,,,,,,,,,,,,,,,,,,,,,,,,,,,,,,,,,,,,,,,,,,,,,,,,,,,,,,,,,,,,,,,,,,,,,,,,,,,,,,,,,,,,,,,,,,,755.1095195999951,756.0659608999849,2,1,755.1095195999951,756.0659608999849,756.05813640001,755.1095195999951,0.43928829999640584,,,,,,,,,,,,,,,,,,,,,,,,,,,,,,,1104-t1,001,2,1,2022_Mar_21_1525,task_complete_blocked_LC_updated,2021.2.3,236.7284133294798,
,,,X,1,,,,,,,,,,,,,,,,,,,,,,,13,1,27,0,,,,,,,,,,,,,,,,,,,,,,,,,,,,,,,,,,,,,,,,,,,,,,,,,,,,,,,,,,,,,,,,,,,,,,,,,,,,,,,,,,,,,,,,,,,,,,,756.1088438999723,757.0591979000019,1,1,756.1088438999723,757.0591979000019,757.0561558000045,None,0.5726229000138119,,,,,,,,,,,,,,,,,,,,,,,,,,,,,,,1104-t1,001,2,1,2022_Mar_21_1525,task_complete_blocked_LC_updated,2021.2.3,236.7284133294798,
,,,O,2,,,,,,,,,,,,,,,,,,,,,,,14,0,28,1,,,,,,,,,,,,,,,,,,,,,,,,,,,,,,,,,,,,,,,,,,,,,,,,,,,,,,,,,,,,,,,,,,,,,,,,,,,,,,,,,,,,,,,,,,,,,,,757.1075336000067,758.0585782999988,2,1,757.1075336000067,758.0585782999988,758.0561462999904,None,0.3532613000134006,,,,,,,,,,,,,,,,,,,,,,,,,,,,,,,1104-t1,001,2,1,2022_Mar_21_1525,task_complete_blocked_LC_updated,2021.2.3,236.7284133294798,
,,,X,1,,,,,,,,,,,,,,,,,,,,,,,14,1,29,0,,,,,,,,,,,,,,,,,,,,,,,,,,,,,,,,,,,,,,,,,,,,,,,,,,,,,,,,,,,,,,,,,,,,,,,,,,,,,,,,,,,,,,,,,,,,,,,758.1086596999667,759.0583086999832,1,1,758.1086596999667,759.0583086999832,759.055943400017,None,0.3984271000372246,,,,,,,,,,,,,,,,,,,,,,,,,,,,,,,1104-t1,001,2,1,2022_Mar_21_1525,task_complete_blocked_LC_updated,2021.2.3,236.7284133294798,
,,,O,2,,,,,,,,,,,,,,,,,,,,,,,15,0,30,1,,,,,,,,,,,,,,,,,,,,,,,,,,,,,,,,,,,,,,,,,,,,,,,,,,,,,,,,,,,,,,,,,,,,,,,,,,,,,,,,,,,,,,,,,,,,,,,759.1087552999961,760.0624219999881,2,1,759.1087552999961,760.0624219999881,760.0587743999786,None,0.3820510999648832,,,,,,,,,,,,,,,,,,,,,,,,,,,,,,,1104-t1,001,2,1,2022_Mar_21_1525,task_complete_blocked_LC_updated,2021.2.3,236.7284133294798,
,,,X,1,,,,,,,,,,,,,,,,,,,,,,,15,1,31,0,,,,,,,,,,,,,,,,,,,,,,,,,,,,,,,,,,,,,,,,,,,,,,,,,,,,,,,,,,,,,,,,,,,,,,,,,,,,,,,,,,,,,,,,,,,,,,,760.1086152999778,761.0628697000211,1,1,760.1086152999778,761.0628697000211,761.05343119998,None,0.31681300001218915,,,,,,,,,,,,,,,,,,,,,,,,,,,,,,,1104-t1,001,2,1,2022_Mar_21_1525,task_complete_blocked_LC_updated,2021.2.3,236.7284133294798,
,,,O,2,,,,,,,,,,,,,,,,,,,,,,,16,0,32,1,,,,,,,,,,,,,,,,,,,,,,,,,,,,,,,,,,,,,,,,,,,,,,,,,,,,,,,,,,,,,,,,,,,,,,,,,,,,,,,,,,,,,,,,,,,,,,,761.109931199986,762.0594331999891,None,0,761.109931199986,762.0594331999891,762.0566659999895,None,,,,,,,,,,,,,,,,,,,,,,,,,,,,,,,,1104-t1,001,2,1,2022_Mar_21_1525,task_complete_blocked_LC_updated,2021.2.3,236.7284133294798,
,,,X,1,,,,,,,,,,,,,,,,,,,,,,,16,1,33,0,,,,,,,,,,,,,,,,,,,,,,,,,,,,,,,,,,,,,,,,,,,,,,,,,,,,,,,,,,,,,,,,,,,,,,,,,,,,,,,,,,,,,,,,,,,,,,,762.1081197999883,763.0572234999854,1,1,762.1081197999883,763.0572234999854,763.0542372000054,None,0.3555809000390582,,,,,,,,,,,,,,,,,,,,,,,,,,,,,,,1104-t1,001,2,1,2022_Mar_21_1525,task_complete_blocked_LC_updated,2021.2.3,236.7284133294798,
,,,X,1,,,,,,,,,,,,,,,,,,,,,,,17,0,34,0,,,,,,,,,,,,,,,,,,,,,,,,,,,,,,,,,,,,,,,,,,,,,,,,,,,,,,,,,,,,,,,,,,,,,,,,,,,,,,,,,,,,,,,,,,,,,,,763.1070660999976,764.0571431000135,1,1,763.1070660999976,764.0571431000135,764.0543087999686,None,0.49064550001639873,,,,,,,,,,,,,,,,,,,,,,,,,,,,,,,1104-t1,001,2,1,2022_Mar_21_1525,task_complete_blocked_LC_updated,2021.2.3,236.7284133294798,
,,,O,2,,,,,,,,,,,,,,,,,,,,,,,17,1,35,1,,,,,,,,,,,,,,,,,,,,,,,,,,,,,,,,,,,,,,,,,,,,,,,,,,,,,,,,,,,,,,,,,,,,,,,,,,,,,,,,,,,,,,,,,,,,,,,764.1077748999815,765.0581562999869,2,1,764.1077748999815,765.0581562999869,765.0552166000125,None,0.37875249999342486,,,,,,,,,,,,,,,,,,,,,,,,,,,,,,,1104-t1,001,2,1,2022_Mar_21_1525,task_complete_blocked_LC_updated,2021.2.3,236.7284133294798,
,,,O,2,,,,,,,,,,,,,,,,,,,,,,,18,0,36,1,,,,,,,,,,,,,,,,,,,,,,,,,,,,,,,,,,,,,,,,,,,,,,,,,,,,,,,,,,,,,,,,,,,,,,,,,,,,,,,,,,,,,,,,,,,,,,,765.1070941999787,766.0564726999728,2,1,765.1070941999787,766.0564726999728,766.0529892999912,None,0.3803581999964081,,,,,,,,,,,,,,,,,,,,,,,,,,,,,,,1104-t1,001,2,1,2022_Mar_21_1525,task_complete_blocked_LC_updated,2021.2.3,236.7284133294798,
,,,X,1,,,,,,,,,,,,,,,,,,,,,,,18,1,37,0,,,,,,,,,,,,,,,,,,,,,,,,,,,,,,,,,,,,,,,,,,,,,,,,,,,,,,,,,,,,,,,,,,,,,,,,,,,,,,,,,,,,,,,,,,,,,,,766.1064969999716,767.0556941999821,1,1,766.1064969999716,767.0556941999821,767.0556941999821,766.1064969999716,0.3810728000244126,,,,,,,,,,,,,,,,,,,,,,,,,,,,,,,1104-t1,001,2,1,2022_Mar_21_1525,task_complete_blocked_LC_updated,2021.2.3,236.7284133294798,
,,,X,1,,,,,,,,,,,,,,,,,,,,,,,19,0,38,0,,,,,,,,,,,,,,,,,,,,,,,,,,,,,,,,,,,,,,,,,,,,,,,,,,,,,,,,,,,,,,,,,,,,,,,,,,,,,,,,,,,,,,,,,,,,,,,767.1072592000128,768.0579672000022,1,1,767.1072592000128,768.0579672000022,768.0579672000022,None,0.37255369999911636,,,,,,,,,,,,,,,,,,,,,,,,,,,,,,,1104-t1,001,2,1,2022_Mar_21_1525,task_complete_blocked_LC_updated,2021.2.3,236.7284133294798,
,,,O,2,,,,,,,,,,,,,,,,,,,,,,,19,1,39,1,,,,,,,,,,,,,,,,,,,,,,,,,,,,,,,,,,,,,,,,,,,,,,,,,,,,,,,,,,,,,,,,,,,,,,,,,,,,,,,,,,,,,,,,,,,,,,,768.1076808000216,769.0584626999917,2,1,768.1076808000216,769.0584626999917,769.0553388000117,None,0.4010848000179976,,,,,,,,,,,,,,,,,,,,,,,,,,,,,,,1104-t1,001,2,1,2022_Mar_21_1525,task_complete_blocked_LC_updated,2021.2.3,236.7284133294798,
,,,O,2,,,,,,,,,,,,,,,,,,,,,,,20,0,40,1,,,,,,,,,,,,,,,,,,,,,,,,,,,,,,,,,,,,,,,,,,,,,,,,,,,,,,,,,,,,,,,,,,,,,,,,,,,,,,,,,,,,,,,,,,,,,,,769.1078265999677,770.0573230999871,2,1,769.1078265999677,770.0573230999871,770.0536948000081,None,0.39188889996148646,,,,,,,,,,,,,,,,,,,,,,,,,,,,,,,1104-t1,001,2,1,2022_Mar_21_1525,task_complete_blocked_LC_updated,2021.2.3,236.7284133294798,
,,,X,1,,,,,,,,,,,,,,,,,,,,,,,20,1,41,0,,,,,,,,,,,,,,,,,,,,,,,,,,,,,,,,,,,,,,,,,,,,,,,,,,,,,,,,,,,,,,,,,,,,,,,,,,,,,,,,,,,,,,,,,,,,,,,770.1066904999898,771.0547846999834,1,1,770.1066904999898,771.0547846999834,771.0547846999834,770.1066904999898,0.43745780002791435,,,,,,,,,,,,,,,,,,,,,,,,,,,,,,,1104-t1,001,2,1,2022_Mar_21_1525,task_complete_blocked_LC_updated,2021.2.3,236.7284133294798,
,,,O,2,,,,,,,,,,,,,,,,,,,,,,,21,0,42,1,,,,,,,,,,,,,,,,,,,,,,,,,,,,,,,,,,,,,,,,,,,,,,,,,,,,,,,,,,,,,,,,,,,,,,,,,,,,,,,,,,,,,,,,,,,,,,,771.1093508999911,772.0618869999889,2,1,771.1093508999911,772.0618869999889,772.0586679999833,None,0.4834660000051372,,,,,,,,,,,,,,,,,,,,,,,,,,,,,,,1104-t1,001,2,1,2022_Mar_21_1525,task_complete_blocked_LC_updated,2021.2.3,236.7284133294798,
,,,X,1,,,,,,,,,,,,,,,,,,,,,,,21,1,43,0,,,,,,,,,,,,,,,,,,,,,,,,,,,,,,,,,,,,,,,,,,,,,,,,,,,,,,,,,,,,,,,,,,,,,,,,,,,,,,,,,,,,,,,,,,,,,,,772.1081566999783,773.0572768999846,1,1,772.1081566999783,773.0572768999846,773.0541139999987,None,0.36153279995778576,,,,,,,,,,,,,,,,,,,,,,,,,,,,,,,1104-t1,001,2,1,2022_Mar_21_1525,task_complete_blocked_LC_updated,2021.2.3,236.7284133294798,
,,,O,2,,,,,,,,,,,,,,,,,,,,,,,22,0,44,1,,,,,,,,,,,,,,,,,,,,,,,,,,,,,,,,,,,,,,,,,,,,,,,,,,,,,,,,,,,,,,,,,,,,,,,,,,,,,,,,,,,,,,,,,,,,,,,773.1061274000094,774.0572456999798,2,1,773.1061274000094,774.0572456999798,774.0531872999854,773.1061274000094,0.34028080001007766,,,,,,,,,,,,,,,,,,,,,,,,,,,,,,,1104-t1,001,2,1,2022_Mar_21_1525,task_complete_blocked_LC_updated,2021.2.3,236.7284133294798,
,,,X,1,,,,,,,,,,,,,,,,,,,,,,,22,1,45,0,,,,,,,,,,,,,,,,,,,,,,,,,,,,,,,,,,,,,,,,,,,,,,,,,,,,,,,,,,,,,,,,,,,,,,,,,,,,,,,,,,,,,,,,,,,,,,,774.1067887999816,775.05836179998,1,1,774.1067887999816,775.05836179998,775.0559078999795,774.1067887999816,0.34128059999784455,,,,,,,,,,,,,,,,,,,,,,,,,,,,,,,1104-t1,001,2,1,2022_Mar_21_1525,task_complete_blocked_LC_updated,2021.2.3,236.7284133294798,
,,,O,2,,,,,,,,,,,,,,,,,,,,,,,23,0,46,1,,,,,,,,,,,,,,,,,,,,,,,,,,,,,,,,,,,,,,,,,,,,,,,,,,,,,,,,,,,,,,,,,,,,,,,,,,,,,,,,,,,,,,,,,,,,,,,775.1113365999772,776.0605469999718,2,1,775.1113365999772,776.0605469999718,776.0581192999962,None,0.3144699999829754,,,,,,,,,,,,,,,,,,,,,,,,,,,,,,,1104-t1,001,2,1,2022_Mar_21_1525,task_complete_blocked_LC_updated,2021.2.3,236.7284133294798,
,,,X,1,,,,,,,,,,,,,,,,,,,,,,,23,1,47,0,,,,,,,,,,,,,,,,,,,,,,,,,,,,,,,,,,,,,,,,,,,,,,,,,,,,,,,,,,,,,,,,,,,,,,,,,,,,,,,,,,,,,,,,,,,,,,,776.1131614000187,777.0629473999725,None,0,776.1131614000187,777.0629473999725,777.0590722999768,None,,,,,,,,,,,,,,,,,,,,,,,,,,,,,,,,1104-t1,001,2,1,2022_Mar_21_1525,task_complete_blocked_LC_updated,2021.2.3,236.7284133294798,
,,,O,2,,,,,,,,,,,,,,,,,,,,,,,24,0,48,1,,,,,,,,,,,,,,,,,,,,,,,,,,,,,,,,,,,,,,,,,,,,,,,,,,,,,,,,,,,,,,,,,,,,,,,,,,,,,,,,,,,,,,,,,,,,,,,777.1091649999726,778.0605215000105,2,1,777.1091649999726,778.0605215000105,778.0571487999987,None,0.3097206000238657,,,,,,,,,,,,,,,,,,,,,,,,,,,,,,,1104-t1,001,2,1,2022_Mar_21_1525,task_complete_blocked_LC_updated,2021.2.3,236.7284133294798,
,,,X,1,,,,,,,,,,,,,,,,,,,,,,,24,1,49,0,,,,,,,,,,,,,,,,,,,,,,,,,,,,,,,,,,,,,,,,,,,,,,,,,,,,,,,,,,,,,,,,,,,,,,,,,,,,,,,,,,,,,,,,,,,,,,,778.1085674000205,779.063011899998,1,1,778.1085674000205,779.063011899998,779.058413599967,None,0.26817100000334904,,,,,,,,,,,,,,,,,,,,,,,,,,,,,,,1104-t1,001,2,1,2022_Mar_21_1525,task_complete_blocked_LC_updated,2021.2.3,236.7284133294798,
,,,O,2,,,,,,,,,,,,,,,,,,,,,,,25,0,50,1,,,,,,,,,,,,,,,,,,,,,,,,,,,,,,,,,,,,,,,,,,,,,,,,,,,,,,,,,,,,,,,,,,,,,,,,,,,,,,,,,,,,,,,,,,,,,,,779.10865010001,780.0595554999891,2,1,779.10865010001,780.0595554999891,780.0561702999985,None,0.29705160000594333,,,,,,,,,,,,,,,,,,,,,,,,,,,,,,,1104-t1,001,2,1,2022_Mar_21_1525,task_complete_blocked_LC_updated,2021.2.3,236.7284133294798,
,,,X,1,,,,,,,,,,,,,,,,,,,,,,,25,1,51,0,,,,,,,,,,,,,,,,,,,,,,,,,,,,,,,,,,,,,,,,,,,,,,,,,,,,,,,,,,,,,,,,,,,,,,,,,,,,,,,,,,,,,,,,,,,,,,,780.1090844999999,781.0597692999872,1,1,780.1090844999999,781.0597692999872,781.0564173000166,None,0.3879383999737911,,,,,,,,,,,,,,,,,,,,,,,,,,,,,,,1104-t1,001,2,1,2022_Mar_21_1525,task_complete_blocked_LC_updated,2021.2.3,236.7284133294798,
,,,X,1,,,,,,,,,,,,,,,,,,,,,,,26,0,52,0,,,,,,,,,,,,,,,,,,,,,,,,,,,,,,,,,,,,,,,,,,,,,,,,,,,,,,,,,,,,,,,,,,,,,,,,,,,,,,,,,,,,,,,,,,,,,,,781.1071257999865,782.058999300003,1,1,781.1071257999865,782.058999300003,782.0555781999719,None,0.3467096000094898,,,,,,,,,,,,,,,,,,,,,,,,,,,,,,,1104-t1,001,2,1,2022_Mar_21_1525,task_complete_blocked_LC_updated,2021.2.3,236.7284133294798,
,,,O,2,,,,,,,,,,,,,,,,,,,,,,,26,1,53,1,,,,,,,,,,,,,,,,,,,,,,,,,,,,,,,,,,,,,,,,,,,,,,,,,,,,,,,,,,,,,,,,,,,,,,,,,,,,,,,,,,,,,,,,,,,,,,,782.1086378999753,783.0572280000197,2,1,782.1086378999753,783.0572280000197,783.0544488999876,None,0.4329589999979362,,,,,,,,,,,,,,,,,,,,,,,,,,,,,,,1104-t1,001,2,1,2022_Mar_21_1525,task_complete_blocked_LC_updated,2021.2.3,236.7284133294798,
,,,O,2,,,,,,,,,,,,,,,,,,,,,,,27,0,54,1,,,,,,,,,,,,,,,,,,,,,,,,,,,,,,,,,,,,,,,,,,,,,,,,,,,,,,,,,,,,,,,,,,,,,,,,,,,,,,,,,,,,,,,,,,,,,,,783.107436100021,784.0572843999835,2,1,783.107436100021,784.0572843999835,784.0533664000104,None,0.492162799986545,,,,,,,,,,,,,,,,,,,,,,,,,,,,,,,1104-t1,001,2,1,2022_Mar_21_1525,task_complete_blocked_LC_updated,2021.2.3,236.7284133294798,
,,,X,1,,,,,,,,,,,,,,,,,,,,,,,27,1,55,0,,,,,,,,,,,,,,,,,,,,,,,,,,,,,,,,,,,,,,,,,,,,,,,,,,,,,,,,,,,,,,,,,,,,,,,,,,,,,,,,,,,,,,,,,,,,,,,784.1059254999855,785.0554778999649,1,1,784.1059254999855,785.0554778999649,785.0525845999946,784.1059254999855,0.39414119999855757,,,,,,,,,,,,,,,,,,,,,,,,,,,,,,,1104-t1,001,2,1,2022_Mar_21_1525,task_complete_blocked_LC_updated,2021.2.3,236.7284133294798,
,,,O,2,,,,,,,,,,,,,,,,,,,,,,,28,0,56,1,,,,,,,,,,,,,,,,,,,,,,,,,,,,,,,,,,,,,,,,,,,,,,,,,,,,,,,,,,,,,,,,,,,,,,,,,,,,,,,,,,,,,,,,,,,,,,,785.105296499969,786.055409899971,2,1,785.105296499969,786.055409899971,786.0523509000195,785.105296499969,0.3903493999969214,,,,,,,,,,,,,,,,,,,,,,,,,,,,,,,1104-t1,001,2,1,2022_Mar_21_1525,task_complete_blocked_LC_updated,2021.2.3,236.7284133294798,
,,,X,1,,,,,,,,,,,,,,,,,,,,,,,28,1,57,0,,,,,,,,,,,,,,,,,,,,,,,,,,,,,,,,,,,,,,,,,,,,,,,,,,,,,,,,,,,,,,,,,,,,,,,,,,,,,,,,,,,,,,,,,,,,,,,786.1085460999748,787.0584003999829,1,1,786.1085460999748,787.0584003999829,787.0560036000097,None,0.31282809999538586,,,,,,,,,,,,,,,,,,,,,,,,,,,,,,,1104-t1,001,2,1,2022_Mar_21_1525,task_complete_blocked_LC_updated,2021.2.3,236.7284133294798,
,,,X,1,,,,,,,,,,,,,,,,,,,,,,,29,0,58,0,,,,,,,,,,,,,,,,,,,,,,,,,,,,,,,,,,,,,,,,,,,,,,,,,,,,,,,,,,,,,,,,,,,,,,,,,,,,,,,,,,,,,,,,,,,,,,,787.1071910000173,788.0574038000195,1,1,787.1071910000173,788.0574038000195,788.0544879999943,None,0.4265146999969147,,,,,,,,,,,,,,,,,,,,,,,,,,,,,,,1104-t1,001,2,1,2022_Mar_21_1525,task_complete_blocked_LC_updated,2021.2.3,236.7284133294798,
,,,O,2,,,,,,,,,,,,,,,,,,,,,,,29,1,59,1,,,,,,,,,,,,,,,,,,,,,,,,,,,,,,,,,,,,,,,,,,,,,,,,,,,,,,,,,,,,,,,,,,,,,,,,,,,,,,,,,,,,,,,,,,,,,,,788.1088507999666,789.0578413999756,2,1,788.1088507999666,789.0578413999756,789.0542617000174,None,0.31489520001923665,,,,,,,,,,,,,,,,,,,,,,,,,,,,,,,1104-t1,001,2,1,2022_Mar_21_1525,task_complete_blocked_LC_updated,2021.2.3,236.7284133294798,
,,,,,,,,,,,,,,,,,,,,,,,,,,,,,,,,,,,,,,,,,,,,,,,,,,,,,,,,,,,,,,,,,,,,,,,,,,,,,,,,,,,,,,,,,,,,,,,,,,,,,,,,,,,,,,,,,,,,,,,,,,,,,,,,,,,,,,789.1055145999999,None,space,32.84500189998653,794.1072611999698,None,,,,,,,,,,,,,,,,,,,,,,,,,1104-t1,001,2,1,2022_Mar_21_1525,task_complete_blocked_LC_updated,2021.2.3,236.7284133294798,
,,,,,,,,,,,,,,,,,,,,,,,,,,,,,,,,,,,,,,,,,,,,,,,,,,,,,,,,,,,,,,,,,,,,,,,,,,,,,,,,,,,,,,,,,,,,,,,826.9613728999975,None,5,11.418203699984588,826.9613728999975,None,,,,,,,,,,,,,,,,,,,,,,,,,,,,,,,,,,,,,,,,794.1072611999698,None,,,,,,,,,,,,,,,,,,,,,,,1104-t1,001,2,1,2022_Mar_21_1525,task_complete_blocked_LC_updated,2021.2.3,236.7284133294798,
stimulus_images/Aflower102.jpg,SPACE,0,,,,,,,,,,,,,,,,,,,,,,,,,,,,,0,0,0,6,,,,,,,,,,,,,,,,,,,,,,,,,,,,,,,,,,,,,,,,,,,,,,,,,,,,,,,,,,,,,,,,,,,2.4999608285725117e-06,838.4094270999776,840.4117715000175,838.4094270999776,840.4117715000175,839.4040231999825,840.4079101000098,839.4040231999825,840.4079101000098,840.4036705999752,None,5.994506699964404,844.405090300017,None,844.405090300017,None,3,1.447535399987828,844.405090300017,None,850.3926402999787,None,,,,,,,,,,,,,,,,,,,,,,,,,,,,,,,,,,,,,,,,,,1104-t1,001,2,1,2022_Mar_21_1525,task_complete_blocked_LC_updated,2021.2.3,236.7284133294798,
stimulus_images/Achampagnebo2.jpg,SPACE,0,,,,,,,,,,,,,,,,,,,,,,,,,,,,,0,1,1,4,,,,,,,,,,,,,,,,,,,,,,,,,,,,,,,,,,,,,,,,,,,,,,,,,,,,,,,,,,,,,,,,,,,13.9925002999953,852.4002302999725,854.4101123000146,852.4002302999725,854.4101123000146,853.3993294999818,854.4101123000146,853.3993294999818,854.4101123000146,854.4030260000145,None,19.995535099995323,858.3995750999893,None,858.3995750999893,None,2,1.2300048000179231,858.3995750999893,None,864.3987884999951,None,,,,,,,,,,,,,,,,,,,,,,,,,,,,,,,,,,,,,,,,,,1104-t1,001,2,1,2022_Mar_21_1525,task_complete_blocked_LC_updated,2021.2.3,236.7284133294798,
stimulus_images/ALOAFBR4.jpg,SPACE,0,,,,,,,,,,,,,,,,,,,,,,,,,,,,,0,2,2,8,,,,,,,,,,,,,,,,,,,,,,,,,,,,,,,,,,,,,,,,,,,,,,,,,,,,,,,,,,,,,,,,,,,28.996846799971536,867.4046608000062,869.406175000011,867.4046608000062,869.406175000011,868.400459699973,869.4030392999994,868.400459699973,869.4030392999994,869.3986069000093,None,34.9969032999943,873.4008516999893,None,873.4008516999893,None,3,0.5478391000069678,873.4008516999893,None,879.4012734999997,None,,,,,,,,,,,,,,,,,,,,,,,,,,,,,,,,,,,,,,,,,,1104-t1,001,2,1,2022_Mar_21_1525,task_complete_blocked_LC_updated,2021.2.3,236.7284133294798,
stimulus_images/Acactusplant.jpg,SPACE,1,,,,,,,,,,,,,,,,,,,,,,,,,,,,,0,3,3,3,,,,,,,,,,,,,,,,,,,,,,,,,,,,,,,,,,,,,,,,,,,,,,,,,,,,,,,,,,,,,,,,,,,42.00091669999529,880.4155830999953,882.4178320000065,880.4155830999953,882.4178320000065,881.4130666999845,882.4178320000065,881.4130666999845,882.4178320000065,882.4143443999928,None,48.0034231999889,886.407613999967,None,886.407613999967,None,1,0.6600624999846332,886.407613999967,None,892.4092497999663,None,,,,,,,,,,,,,,,,,,,,,,,,,,,,,,,,,,,,,,,,,,1104-t1,001,2,1,2022_Mar_21_1525,task_complete_blocked_LC_updated,2021.2.3,236.7284133294798,
stimulus_images/Ahandbag50.jpg,SPACE,1,,,,,,,,,,,,,,,,,,,,,,,,,,,,,0,4,4,7,,,,,,,,,,,,,,,,,,,,,,,,,,,,,,,,,,,,,,,,,,,,,,,,,,,,,,,,,,,,,,,,,,,56.01030989998253,894.4247533999733,896.4254023999674,894.4247533999733,896.4254023999674,895.4204725999734,896.4213163999957,895.4204725999734,896.4213163999957,896.4173499000026,None,62.011912299960386,900.4165486000129,None,900.4165486000129,None,None,,900.4165486000129,None,906.4147299000178,None,,,,,,,,,,,,,,,,,,,,,,,,,,,,,,,,,,,,,,,,,,1104-t1,001,2,1,2022_Mar_21_1525,task_complete_blocked_LC_updated,2021.2.3,236.7284133294798,
stimulus_images/ACUTBOAR2.jpg,SPACE,0,,,,,,,,,,,,,,,,,,,,,,,,,,,,,0,5,5,5,,,,,,,,,,,,,,,,,,,,,,,,,,,,,,,,,,,,,,,,,,,,,,,,,,,,,,,,,,,,,,,,,,,70.0138340999838,908.4228717999649,910.4276641000179,908.4228717999649,910.4276641000179,909.4213844999904,910.4276641000179,909.4213844999904,910.4276641000179,910.4216060999897,None,76.01609629997984,914.4203388000024,None,914.4203388000024,None,4,1.670006399974227,914.4203388000024,None,920.4203578999732,None,,,,,,,,,,,,,,,,,,,,,,,,,,,,,,,,,,,,,,,,,,1104-t1,001,2,1,2022_Mar_21_1525,task_complete_blocked_LC_updated,2021.2.3,236.7284133294798,
stimulus_images/Aplantinpot2.jpg,SPACE,0,,,,,,,,,,,,,,,,,,,,,,,,,,,,,0,6,6,9,,,,,,,,,,,,,,,,,,,,,,,,,,,,,,,,,,,,,,,,,,,,,,,,,,,,,,,,,,,,,,,,,,,84.01789129996905,922.4300789000117,924.430091999995,922.4300789000117,924.430091999995,923.4230091000209,924.4237735000206,923.4230091000209,924.4237735000206,924.4237735000206,None,90.0203790999949,928.4248995999806,None,928.4248995999806,None,3,0.9421671000309289,928.4248995999806,None,934.4239611999947,None,,,,,,,,,,,,,,,,,,,,,,,,,,,,,,,,,,,,,,,,,,1104-t1,001,2,1,2022_Mar_21_1525,task_complete_blocked_LC_updated,2021.2.3,236.7284133294798,
stimulus_images/Ababybottle15.jpg,SPACE,0,,,,,,,,,,,,,,,,,,,,,,,,,,,,,0,7,7,0,,,,,,,,,,,,,,,,,,,,,,,,,,,,,,,,,,,,,,,,,,,,,,,,,,,,,,,,,,,,,,,,,,,98.0221593999886,936.4299515999737,938.4298695999896,936.4299515999737,938.4298695999896,937.4246616999735,938.4270295000169,937.4246616999735,938.4270295000169,938.4229787999648,None,104.02210699999705,942.4259395999834,None,942.4259395999834,None,2,0.6813321000081487,942.4259395999834,None,948.4279153000098,None,,,,,,,,,,,,,,,,,,,,,,,,,,,,,,,,,,,,,,,,,,1104-t1,001,2,1,2022_Mar_21_1525,task_complete_blocked_LC_updated,2021.2.3,236.7284133294798,
stimulus_images/Aboardgame6.jpg,SPACE,0,,,,,,,,,,,,,,,,,,,,,,,,,,,,,0,8,8,2,,,,,,,,,,,,,,,,,,,,,,,,,,,,,,,,,,,,,,,,,,,,,,,,,,,,,,,,,,,,,,,,,,,111.02625969995279,949.433906899998,951.4382354000118,949.433906899998,951.4382354000118,950.426048399997,951.4271381999715,950.426048399997,951.4271381999715,951.4333532999735,None,117.02881429996341,955.4328626000206,None,955.4328626000206,None,1,1.350363799952902,955.4328626000206,None,961.4405966000049,None,,,,,,,,,,,,,,,,,,,,,,,,,,,,,,,,,,,,,,,,,,1104-t1,001,2,1,2022_Mar_21_1525,task_complete_blocked_LC_updated,2021.2.3,236.7284133294798,
stimulus_images/Abasket108.jpg,SPACE,0,,,,,,,,,,,,,,,,,,,,,,,,,,,,,0,9,9,1,,,,,,,,,,,,,,,,,,,,,,,,,,,,,,,,,,,,,,,,,,,,,,,,,,,,,,,,,,,,,,,,,,,124.04334939998807,962.4569739999715,964.4593251000042,962.4569739999715,964.4593251000042,963.4580539999879,964.4593251000042,963.4580539999879,964.4593251000042,964.455805399979,None,130.0455529000028,968.4495648000157,None,968.4495648000157,None,3,1.1063884999603033,968.4495648000157,None,974.4520983999828,None,,,,,,,,,,,,,,,,,,,,,,,,,,,,,,,,,,,,,,,,,,1104-t1,001,2,1,2022_Mar_21_1525,task_complete_blocked_LC_updated,2021.2.3,236.7284133294798,
stimulus_images/AAEROBENC.jpg,SPACE,0,,,,,,,,,,,,,,,,,,,,,,,,,,,,,,,,,0,0,0,4,,,,,,,,,,,,,,,,,,,,,,,,,,,,,,,,,,,,,,,,,,,,,,,,,,,,,,,,,,,,,,,137.0577422999777,975.4644936000113,977.470778500021,975.4644936000113,977.470778500021,976.4635188999819,977.470778500021,976.4635188999819,977.470778500021,977.4635681000073,None,143.0542970999959,981.4582955000224,None,981.4582955000224,None,3,1.8529728999710642,981.4582955000224,None,987.4566099999938,None,,,,,,,,,,,,,,,,,,,,,,,,,,,,,,,,,,,,,,,,,,1104-t1,001,2,1,2022_Mar_21_1525,task_complete_blocked_LC_updated,2021.2.3,236.7284133294798,
stimulus_images/pencil-a.jpg,SPACE,0,,,,,,,,,,,,,,,,,,,,,,,,,,,,,,,,,0,1,1,2,,,,,,,,,,,,,,,,,,,,,,,,,,,,,,,,,,,,,,,,,,,,,,,,,,,,,,,,,,,,,,,151.05511689995183,989.4621761000017,991.4629272000166,989.4621761000017,991.4629272000166,990.4549754000036,991.458442299976,990.4549754000036,991.458442299976,991.458442299976,None,157.0565538999508,995.4623735999921,None,995.4623735999921,None,2,1.0367237000027671,995.4623735999921,None,1001.4613284000079,None,,,,,,,,,,,,,,,,,,,,,,,,,,,,,,,,,,,,,,,,,,1104-t1,001,2,1,2022_Mar_21_1525,task_complete_blocked_LC_updated,2021.2.3,236.7284133294798,
stimulus_images/A_teabag.jpg,SPACE,1,,,,,,,,,,,,,,,,,,,,,,,,,,,,,,,,,0,2,2,3,,,,,,,,,,,,,,,,,,,,,,,,,,,,,,,,,,,,,,,,,,,,,,,,,,,,,,,,,,,,,,,166.0601165999542,1004.4734827000066,1006.471609900007,1004.4734827000066,1006.471609900007,1005.471102999989,1006.471609900007,1005.471102999989,1006.471609900007,1006.471609900007,None,172.06225799996173,1010.4664135000203,None,1010.4664135000203,None,2,2.4885169999906793,1010.4664135000203,None,1016.4681117999717,None,,,,,,,,,,,,,,,,,,,,,,,,,,,,,,,,,,,,,,,,,,1104-t1,001,2,1,2022_Mar_21_1525,task_complete_blocked_LC_updated,2021.2.3,236.7284133294798,
stimulus_images/ABISHOP2.jpg,SPACE,0,,,,,,,,,,,,,,,,,,,,,,,,,,,,,,,,,0,3,3,8,,,,,,,,,,,,,,,,,,,,,,,,,,,,,,,,,,,,,,,,,,,,,,,,,,,,,,,,,,,,,,,181.0679215999553,1019.4900237999973,1021.4886415000074,1019.4900237999973,1021.4886415000074,1020.4831609000103,1021.4852255000151,1020.4831609000103,1021.4852255000151,1021.4852255000151,None,187.0737162999576,1025.4793950999738,None,1025.4793950999738,None,3,1.2266344000236131,1025.4793950999738,None,1031.484880300006,None,,,,,,,,,,,,,,,,,,,,,,,,,,,,,,,,,,,,,,,,,,1104-t1,001,2,1,2022_Mar_21_1525,task_complete_blocked_LC_updated,2021.2.3,236.7284133294798,
stimulus_images/Abananasundae.jpg,SPACE,1,,,,,,,,,,,,,,,,,,,,,,,,,,,,,,,,,0,4,4,7,,,,,,,,,,,,,,,,,,,,,,,,,,,,,,,,,,,,,,,,,,,,,,,,,,,,,,,,,,,,,,,194.08508329995675,1032.4988185999682,1034.502495499968,1032.4988185999682,1034.502495499968,1033.4967601000099,1034.502495499968,1033.4967601000099,1034.502495499968,1034.4986649000202,None,200.0874714999809,1038.4914799999679,None,1038.4914799999679,None,1,0.5564916999428533,1038.4914799999679,None,1044.4901462999987,None,,,,,,,,,,,,,,,,,,,,,,,,,,,,,,,,,,,,,,,,,,1104-t1,001,2,1,2022_Mar_21_1525,task_complete_blocked_LC_updated,2021.2.3,236.7284133294798,
stimulus_images/ASEWINGT4.jpg,SPACE,0,,,,,,,,,,,,,,,,,,,,,,,,,,,,,,,,,0,5,5,0,,,,,,,,,,,,,,,,,,,,,,,,,,,,,,,,,,,,,,,,,,,,,,,,,,,,,,,,,,,,,,,209.0892651999602,1047.5034830999793,1049.5031682999688,1047.5034830999793,1049.5031682999688,1048.500775399967,1049.5031682999688,1048.500775399967,1049.5031682999688,1049.4989643999725,None,215.09188229998108,1053.4963497999706,None,1053.4963497999706,None,2,1.7734965000418015,1053.4963497999706,None,1059.4960285999696,None,,,,,,,,,,,,,,,,,,,,,,,,,,,,,,,,,,,,,,,,,,1104-t1,001,2,1,2022_Mar_21_1525,task_complete_blocked_LC_updated,2021.2.3,236.7284133294798,
stimulus_images/AANTFRYI2.jpg,SPACE,0,,,,,,,,,,,,,,,,,,,,,,,,,,,,,,,,,0,6,6,5,,,,,,,,,,,,,,,,,,,,,,,,,,,,,,,,,,,,,,,,,,,,,,,,,,,,,,,,,,,,,,,223.09340009995503,1061.5069532999769,1063.5052561999764,1061.5069532999769,1063.5052561999764,1062.5044587000157,1063.5052561999764,1062.5044587000157,1063.5052561999764,1063.5027299000067,None,229.0957747999928,1067.5000098000164,None,1067.5000098000164,None,3,0.9421125999651849,1067.5000098000164,None,1073.5026059999946,None,,,,,,,,,,,,,,,,,,,,,,,,,,,,,,,,,,,,,,,,,,1104-t1,001,2,1,2022_Mar_21_1525,task_complete_blocked_LC_updated,2021.2.3,236.7284133294798,
stimulus_images/Awatch28.jpg,SPACE,1,,,,,,,,,,,,,,,,,,,,,,,,,,,,,,,,,0,7,7,1,,,,,,,,,,,,,,,,,,,,,,,,,,,,,,,,,,,,,,,,,,,,,,,,,,,,,,,,,,,,,,,238.09970209997846,1076.510475100018,1078.5185335999704,1076.510475100018,1078.5185335999704,1077.5043049000087,1078.514317299996,1077.5043049000087,1078.514317299996,1078.514317299996,None,244.10033359995577,1082.5052267999854,None,1082.5052267999854,None,1,0.5557876999955624,1082.5052267999854,None,1088.5061014000094,None,,,,,,,,,,,,,,,,,,,,,,,,,,,,,,,,,,,,,,,,,,1104-t1,001,2,1,2022_Mar_21_1525,task_complete_blocked_LC_updated,2021.2.3,236.7284133294798,
stimulus_images/Abrooch100.jpg,SPACE,0,,,,,,,,,,,,,,,,,,,,,,,,,,,,,,,,,0,8,8,9,,,,,,,,,,,,,,,,,,,,,,,,,,,,,,,,,,,,,,,,,,,,,,,,,,,,,,,,,,,,,,,251.1043846999528,1089.5266722000088,1091.5265844999813,1089.5266722000088,1091.5265844999813,1090.515866199974,1091.515347699984,1090.515866199974,1091.515347699984,1091.5191688999766,None,257.10843439999735,1095.5127615999663,None,1095.5127615999663,None,1,1.5559480999945663,1095.5127615999663,None,1101.5130677999696,None,,,,,,,,,,,,,,,,,,,,,,,,,,,,,,,,,,,,,,,,,,1104-t1,001,2,1,2022_Mar_21_1525,task_complete_blocked_LC_updated,2021.2.3,236.7284133294798,
stimulus_images/AARTPLANT.jpg,SPACE,0,,,,,,,,,,,,,,,,,,,,,,,,,,,,,,,,,0,9,9,6,,,,,,,,,,,,,,,,,,,,,,,,,,,,,,,,,,,,,,,,,,,,,,,,,,,,,,,,,,,,,,,265.1104533000034,1103.5184148999979,1105.518444699992,1103.5184148999979,1105.518444699992,1104.513600700011,1105.514950199984,1104.513600700011,1105.514950199984,1105.514950199984,None,271.1125327000045,1109.5164114999934,None,1109.5164114999934,None,1,0.5567059000022709,1109.5164114999934,None,1115.5184953999706,None,,,,,,,,,,,,,,,,,,,,,,,,,,,,,,,,,,,,,,,,,,1104-t1,001,2,1,2022_Mar_21_1525,task_complete_blocked_LC_updated,2021.2.3,236.7284133294798,
,,,X,1,,,,,,,,,,,,,,,,,,,,,,,,,,,,,,,,,,,0,0,0,0,,,,,,,,,,,,,,,,,,,,,,,,,,,,,,,,,,,,,,,,,,,,,,,,,,,,,,,,,,,,,,,,,,,,,,,,,,,,,,,,,1118.5221958999755,None,1121.5288204000099,1122.4782036999823,1,1,1121.5288204000099,1122.4782036999823,1122.4752866000053,None,0.6991021000430919,,,,,,,,,,,,,,,,,,,,,,,,,,,,,,,1104-t1,001,2,1,2022_Mar_21_1525,task_complete_blocked_LC_updated,2021.2.3,236.7284133294798,
,,,O,2,,,,,,,,,,,,,,,,,,,,,,,,,,,,,,,,,,,0,1,1,1,,,,,,,,,,,,,,,,,,,,,,,,,,,,,,,,,,,,,,,,,,,,,,,,,,,,,,,,,,,,,,,,,,,,,,,,,,,,,,,,,,,1122.5269375999924,1123.4796475999756,2,1,1122.5269375999924,1123.4796475999756,1123.4760076999664,None,0.645628799975384,,,,,,,,,,,,,,,,,,,,,,,,,,,,,,,1104-t1,001,2,1,2022_Mar_21_1525,task_complete_blocked_LC_updated,2021.2.3,236.7284133294798,
,,,X,1,,,,,,,,,,,,,,,,,,,,,,,,,,,,,,,,,,,1,0,2,0,,,,,,,,,,,,,,,,,,,,,,,,,,,,,,,,,,,,,,,,,,,,,,,,,,,,,,,,,,,,,,,,,,,,,,,,,,,,,,,,,,,1123.5260097999708,1124.4784769999678,1,1,1123.5260097999708,1124.4784769999678,1124.4751700999914,None,0.376911899948027,,,,,,,,,,,,,,,,,,,,,,,,,,,,,,,1104-t1,001,2,1,2022_Mar_21_1525,task_complete_blocked_LC_updated,2021.2.3,236.7284133294798,
,,,O,2,,,,,,,,,,,,,,,,,,,,,,,,,,,,,,,,,,,1,1,3,1,,,,,,,,,,,,,,,,,,,,,,,,,,,,,,,,,,,,,,,,,,,,,,,,,,,,,,,,,,,,,,,,,,,,,,,,,,,,,,,,,,,1124.5266466999892,1125.4759868999827,2,1,1124.5266466999892,1125.4759868999827,1125.4729296999867,None,0.2880878999712877,,,,,,,,,,,,,,,,,,,,,,,,,,,,,,,1104-t1,001,2,1,2022_Mar_21_1525,task_complete_blocked_LC_updated,2021.2.3,236.7284133294798,
,,,O,2,,,,,,,,,,,,,,,,,,,,,,,,,,,,,,,,,,,2,0,4,1,,,,,,,,,,,,,,,,,,,,,,,,,,,,,,,,,,,,,,,,,,,,,,,,,,,,,,,,,,,,,,,,,,,,,,,,,,,,,,,,,,,1125.5287751000142,1126.4808987000142,2,1,1125.5287751000142,1126.4808987000142,1126.4774607999716,None,0.4780777000123635,,,,,,,,,,,,,,,,,,,,,,,,,,,,,,,1104-t1,001,2,1,2022_Mar_21_1525,task_complete_blocked_LC_updated,2021.2.3,236.7284133294798,
,,,X,1,,,,,,,,,,,,,,,,,,,,,,,,,,,,,,,,,,,2,1,5,0,,,,,,,,,,,,,,,,,,,,,,,,,,,,,,,,,,,,,,,,,,,,,,,,,,,,,,,,,,,,,,,,,,,,,,,,,,,,,,,,,,,1126.5269120999728,1127.4780237000086,1,1,1126.5269120999728,1127.4780237000086,1127.47468330001,None,0.3518910999991931,,,,,,,,,,,,,,,,,,,,,,,,,,,,,,,1104-t1,001,2,1,2022_Mar_21_1525,task_complete_blocked_LC_updated,2021.2.3,236.7284133294798,
,,,X,1,,,,,,,,,,,,,,,,,,,,,,,,,,,,,,,,,,,3,0,6,0,,,,,,,,,,,,,,,,,,,,,,,,,,,,,,,,,,,,,,,,,,,,,,,,,,,,,,,,,,,,,,,,,,,,,,,,,,,,,,,,,,,1127.5256085,1128.476158800011,1,1,1127.5256085,1128.476158800011,1128.4727880000137,None,0.3066615000134334,,,,,,,,,,,,,,,,,,,,,,,,,,,,,,,1104-t1,001,2,1,2022_Mar_21_1525,task_complete_blocked_LC_updated,2021.2.3,236.7284133294798,
,,,O,2,,,,,,,,,,,,,,,,,,,,,,,,,,,,,,,,,,,3,1,7,1,,,,,,,,,,,,,,,,,,,,,,,,,,,,,,,,,,,,,,,,,,,,,,,,,,,,,,,,,,,,,,,,,,,,,,,,,,,,,,,,,,,1128.532755799999,1129.4827152999933,2,1,1128.532755799999,1129.4827152999933,1129.4792052999837,None,0.3411144000128843,,,,,,,,,,,,,,,,,,,,,,,,,,,,,,,1104-t1,001,2,1,2022_Mar_21_1525,task_complete_blocked_LC_updated,2021.2.3,236.7284133294798,
,,,O,2,,,,,,,,,,,,,,,,,,,,,,,,,,,,,,,,,,,4,0,8,1,,,,,,,,,,,,,,,,,,,,,,,,,,,,,,,,,,,,,,,,,,,,,,,,,,,,,,,,,,,,,,,,,,,,,,,,,,,,,,,,,,,1129.525484999991,1130.4756668999908,2,1,1129.525484999991,1130.4756668999908,1130.472258099995,None,0.3788419000338763,,,,,,,,,,,,,,,,,,,,,,,,,,,,,,,1104-t1,001,2,1,2022_Mar_21_1525,task_complete_blocked_LC_updated,2021.2.3,236.7284133294798,
,,,X,1,,,,,,,,,,,,,,,,,,,,,,,,,,,,,,,,,,,4,1,9,0,,,,,,,,,,,,,,,,,,,,,,,,,,,,,,,,,,,,,,,,,,,,,,,,,,,,,,,,,,,,,,,,,,,,,,,,,,,,,,,,,,,1130.526329300017,1131.4767183000222,1,1,1130.526329300017,1131.4767183000222,1131.4733679000055,None,0.3489017999963835,,,,,,,,,,,,,,,,,,,,,,,,,,,,,,,1104-t1,001,2,1,2022_Mar_21_1525,task_complete_blocked_LC_updated,2021.2.3,236.7284133294798,
,,,O,2,,,,,,,,,,,,,,,,,,,,,,,,,,,,,,,,,,,5,0,10,1,,,,,,,,,,,,,,,,,,,,,,,,,,,,,,,,,,,,,,,,,,,,,,,,,,,,,,,,,,,,,,,,,,,,,,,,,,,,,,,,,,,1131.5304793000105,1132.4840697000036,2,1,1131.5304793000105,1132.4840697000036,1132.4745607000077,None,0.4894411999848671,,,,,,,,,,,,,,,,,,,,,,,,,,,,,,,1104-t1,001,2,1,2022_Mar_21_1525,task_complete_blocked_LC_updated,2021.2.3,236.7284133294798,
,,,X,1,,,,,,,,,,,,,,,,,,,,,,,,,,,,,,,,,,,5,1,11,0,,,,,,,,,,,,,,,,,,,,,,,,,,,,,,,,,,,,,,,,,,,,,,,,,,,,,,,,,,,,,,,,,,,,,,,,,,,,,,,,,,,1132.527875299973,1133.4770010000211,1,1,1132.527875299973,1133.4770010000211,1133.4731712000212,None,0.3547007000306621,,,,,,,,,,,,,,,,,,,,,,,,,,,,,,,1104-t1,001,2,1,2022_Mar_21_1525,task_complete_blocked_LC_updated,2021.2.3,236.7284133294798,
,,,X,1,,,,,,,,,,,,,,,,,,,,,,,,,,,,,,,,,,,6,0,12,0,,,,,,,,,,,,,,,,,,,,,,,,,,,,,,,,,,,,,,,,,,,,,,,,,,,,,,,,,,,,,,,,,,,,,,,,,,,,,,,,,,,1133.5263083999744,1134.4771007999661,None,0,1133.5263083999744,1134.4771007999661,1134.4741304999916,None,,,,,,,,,,,,,,,,,,,,,,,,,,,,,,,,1104-t1,001,2,1,2022_Mar_21_1525,task_complete_blocked_LC_updated,2021.2.3,236.7284133294798,
,,,O,2,,,,,,,,,,,,,,,,,,,,,,,,,,,,,,,,,,,6,1,13,1,,,,,,,,,,,,,,,,,,,,,,,,,,,,,,,,,,,,,,,,,,,,,,,,,,,,,,,,,,,,,,,,,,,,,,,,,,,,,,,,,,,1134.5267057999736,1135.477704400022,2,1,1134.5267057999736,1135.477704400022,1135.474931099976,None,0.32212070003151894,,,,,,,,,,,,,,,,,,,,,,,,,,,,,,,1104-t1,001,2,1,2022_Mar_21_1525,task_complete_blocked_LC_updated,2021.2.3,236.7284133294798,
,,,X,1,,,,,,,,,,,,,,,,,,,,,,,,,,,,,,,,,,,7,0,14,0,,,,,,,,,,,,,,,,,,,,,,,,,,,,,,,,,,,,,,,,,,,,,,,,,,,,,,,,,,,,,,,,,,,,,,,,,,,,,,,,,,,1135.5296397000202,1136.4814559000079,1,1,1135.5296397000202,1136.4814559000079,1136.4720009000157,None,0.6613509000162594,,,,,,,,,,,,,,,,,,,,,,,,,,,,,,,1104-t1,001,2,1,2022_Mar_21_1525,task_complete_blocked_LC_updated,2021.2.3,236.7284133294798,
,,,O,2,,,,,,,,,,,,,,,,,,,,,,,,,,,,,,,,,,,7,1,15,1,,,,,,,,,,,,,,,,,,,,,,,,,,,,,,,,,,,,,,,,,,,,,,,,,,,,,,,,,,,,,,,,,,,,,,,,,,,,,,,,,,,1136.5240565999993,1137.4742461999995,2,1,1136.5240565999993,1137.4742461999995,1137.4706969999825,1136.5240565999993,0.3916682000271976,,,,,,,,,,,,,,,,,,,,,,,,,,,,,,,1104-t1,001,2,1,2022_Mar_21_1525,task_complete_blocked_LC_updated,2021.2.3,236.7284133294798,
,,,X,1,,,,,,,,,,,,,,,,,,,,,,,,,,,,,,,,,,,8,0,16,0,,,,,,,,,,,,,,,,,,,,,,,,,,,,,,,,,,,,,,,,,,,,,,,,,,,,,,,,,,,,,,,,,,,,,,,,,,,,,,,,,,,1137.5268037000205,1138.479888700007,1,1,1137.5268037000205,1138.479888700007,1138.4711083999719,1137.5268037000205,0.3369922999991104,,,,,,,,,,,,,,,,,,,,,,,,,,,,,,,1104-t1,001,2,1,2022_Mar_21_1525,task_complete_blocked_LC_updated,2021.2.3,236.7284133294798,
,,,O,2,,,,,,,,,,,,,,,,,,,,,,,,,,,,,,,,,,,8,1,17,1,,,,,,,,,,,,,,,,,,,,,,,,,,,,,,,,,,,,,,,,,,,,,,,,,,,,,,,,,,,,,,,,,,,,,,,,,,,,,,,,,,,1138.523520799994,1139.4780911999987,2,1,1138.523520799994,1139.4780911999987,1139.4732074000058,1138.523520799994,0.3950800999882631,,,,,,,,,,,,,,,,,,,,,,,,,,,,,,,1104-t1,001,2,1,2022_Mar_21_1525,task_complete_blocked_LC_updated,2021.2.3,236.7284133294798,
,,,X,1,,,,,,,,,,,,,,,,,,,,,,,,,,,,,,,,,,,9,0,18,0,,,,,,,,,,,,,,,,,,,,,,,,,,,,,,,,,,,,,,,,,,,,,,,,,,,,,,,,,,,,,,,,,,,,,,,,,,,,,,,,,,,1139.528866800014,1140.479501899972,1,1,1139.528866800014,1140.479501899972,1140.4714695999864,None,0.5276570999994874,,,,,,,,,,,,,,,,,,,,,,,,,,,,,,,1104-t1,001,2,1,2022_Mar_21_1525,task_complete_blocked_LC_updated,2021.2.3,236.7284133294798,
,,,O,2,,,,,,,,,,,,,,,,,,,,,,,,,,,,,,,,,,,9,1,19,1,,,,,,,,,,,,,,,,,,,,,,,,,,,,,,,,,,,,,,,,,,,,,,,,,,,,,,,,,,,,,,,,,,,,,,,,,,,,,,,,,,,1140.5290601999732,1141.4784671000089,2,1,1140.5290601999732,1141.4784671000089,1141.474785599974,None,0.41447690001223236,,,,,,,,,,,,,,,,,,,,,,,,,,,,,,,1104-t1,001,2,1,2022_Mar_21_1525,task_complete_blocked_LC_updated,2021.2.3,236.7284133294798,
,,,O,2,,,,,,,,,,,,,,,,,,,,,,,,,,,,,,,,,,,10,0,20,1,,,,,,,,,,,,,,,,,,,,,,,,,,,,,,,,,,,,,,,,,,,,,,,,,,,,,,,,,,,,,,,,,,,,,,,,,,,,,,,,,,,1141.525342000008,1142.47544249997,2,1,1141.525342000008,1142.47544249997,1142.472395699995,None,0.46091829997021705,,,,,,,,,,,,,,,,,,,,,,,,,,,,,,,1104-t1,001,2,1,2022_Mar_21_1525,task_complete_blocked_LC_updated,2021.2.3,236.7284133294798,
,,,X,1,,,,,,,,,,,,,,,,,,,,,,,,,,,,,,,,,,,10,1,21,0,,,,,,,,,,,,,,,,,,,,,,,,,,,,,,,,,,,,,,,,,,,,,,,,,,,,,,,,,,,,,,,,,,,,,,,,,,,,,,,,,,,1142.5261268999893,1143.4798016999848,1,1,1142.5261268999893,1143.4798016999848,1143.4763725000084,None,0.5303051000228152,,,,,,,,,,,,,,,,,,,,,,,,,,,,,,,1104-t1,001,2,1,2022_Mar_21_1525,task_complete_blocked_LC_updated,2021.2.3,236.7284133294798,
,,,O,2,,,,,,,,,,,,,,,,,,,,,,,,,,,,,,,,,,,11,0,22,1,,,,,,,,,,,,,,,,,,,,,,,,,,,,,,,,,,,,,,,,,,,,,,,,,,,,,,,,,,,,,,,,,,,,,,,,,,,,,,,,,,,1143.5265784999938,1144.4761774999788,2,1,1143.5265784999938,1144.4761774999788,1144.4734660999966,None,0.34925430000294,,,,,,,,,,,,,,,,,,,,,,,,,,,,,,,1104-t1,001,2,1,2022_Mar_21_1525,task_complete_blocked_LC_updated,2021.2.3,236.7284133294798,
,,,X,1,,,,,,,,,,,,,,,,,,,,,,,,,,,,,,,,,,,11,1,23,0,,,,,,,,,,,,,,,,,,,,,,,,,,,,,,,,,,,,,,,,,,,,,,,,,,,,,,,,,,,,,,,,,,,,,,,,,,,,,,,,,,,1144.5263912999653,1145.476583599986,1,1,1144.5263912999653,1145.476583599986,1145.476583599986,None,0.4450510000460781,,,,,,,,,,,,,,,,,,,,,,,,,,,,,,,1104-t1,001,2,1,2022_Mar_21_1525,task_complete_blocked_LC_updated,2021.2.3,236.7284133294798,
,,,O,2,,,,,,,,,,,,,,,,,,,,,,,,,,,,,,,,,,,12,0,24,1,,,,,,,,,,,,,,,,,,,,,,,,,,,,,,,,,,,,,,,,,,,,,,,,,,,,,,,,,,,,,,,,,,,,,,,,,,,,,,,,,,,1145.5268002999946,1146.4805949999718,2,1,1145.5268002999946,1146.4805949999718,1146.4774163999828,None,0.38900919997831807,,,,,,,,,,,,,,,,,,,,,,,,,,,,,,,1104-t1,001,2,1,2022_Mar_21_1525,task_complete_blocked_LC_updated,2021.2.3,236.7284133294798,
,,,X,1,,,,,,,,,,,,,,,,,,,,,,,,,,,,,,,,,,,12,1,25,0,,,,,,,,,,,,,,,,,,,,,,,,,,,,,,,,,,,,,,,,,,,,,,,,,,,,,,,,,,,,,,,,,,,,,,,,,,,,,,,,,,,1146.5270286999876,1147.4784088999731,1,1,1146.5270286999876,1147.4784088999731,1147.4750208000187,None,0.3649699999950826,,,,,,,,,,,,,,,,,,,,,,,,,,,,,,,1104-t1,001,2,1,2022_Mar_21_1525,task_complete_blocked_LC_updated,2021.2.3,236.7284133294798,
,,,O,2,,,,,,,,,,,,,,,,,,,,,,,,,,,,,,,,,,,13,0,26,1,,,,,,,,,,,,,,,,,,,,,,,,,,,,,,,,,,,,,,,,,,,,,,,,,,,,,,,,,,,,,,,,,,,,,,,,,,,,,,,,,,,1147.5267906999798,1148.479581599997,2,1,1147.5267906999798,1148.479581599997,1148.475993799977,None,0.3127569999778643,,,,,,,,,,,,,,,,,,,,,,,,,,,,,,,1104-t1,001,2,1,2022_Mar_21_1525,task_complete_blocked_LC_updated,2021.2.3,236.7284133294798,
,,,X,1,,,,,,,,,,,,,,,,,,,,,,,,,,,,,,,,,,,13,1,27,0,,,,,,,,,,,,,,,,,,,,,,,,,,,,,,,,,,,,,,,,,,,,,,,,,,,,,,,,,,,,,,,,,,,,,,,,,,,,,,,,,,,1148.5264634999912,1149.4765759999864,1,1,1148.5264634999912,1149.4765759999864,1149.4738872000016,None,0.41826010000659153,,,,,,,,,,,,,,,,,,,,,,,,,,,,,,,1104-t1,001,2,1,2022_Mar_21_1525,task_complete_blocked_LC_updated,2021.2.3,236.7284133294798,
,,,O,2,,,,,,,,,,,,,,,,,,,,,,,,,,,,,,,,,,,14,0,28,1,,,,,,,,,,,,,,,,,,,,,,,,,,,,,,,,,,,,,,,,,,,,,,,,,,,,,,,,,,,,,,,,,,,,,,,,,,,,,,,,,,,1149.5270096000168,1150.4754954999662,2,1,1149.5270096000168,1150.4754954999662,1150.4727049000212,None,0.3817754000192508,,,,,,,,,,,,,,,,,,,,,,,,,,,,,,,1104-t1,001,2,1,2022_Mar_21_1525,task_complete_blocked_LC_updated,2021.2.3,236.7284133294798,
,,,X,1,,,,,,,,,,,,,,,,,,,,,,,,,,,,,,,,,,,14,1,29,0,,,,,,,,,,,,,,,,,,,,,,,,,,,,,,,,,,,,,,,,,,,,,,,,,,,,,,,,,,,,,,,,,,,,,,,,,,,,,,,,,,,1150.530200499983,1151.4797164999763,1,1,1150.530200499983,1151.4797164999763,1151.4723600000143,None,0.3614738000323996,,,,,,,,,,,,,,,,,,,,,,,,,,,,,,,1104-t1,001,2,1,2022_Mar_21_1525,task_complete_blocked_LC_updated,2021.2.3,236.7284133294798,
,,,O,2,,,,,,,,,,,,,,,,,,,,,,,,,,,,,,,,,,,15,0,30,1,,,,,,,,,,,,,,,,,,,,,,,,,,,,,,,,,,,,,,,,,,,,,,,,,,,,,,,,,,,,,,,,,,,,,,,,,,,,,,,,,,,1151.5278252999997,1152.4757614000118,2,1,1151.5278252999997,1152.4757614000118,1152.4757614000118,None,0.46959219995187595,,,,,,,,,,,,,,,,,,,,,,,,,,,,,,,1104-t1,001,2,1,2022_Mar_21_1525,task_complete_blocked_LC_updated,2021.2.3,236.7284133294798,
,,,X,1,,,,,,,,,,,,,,,,,,,,,,,,,,,,,,,,,,,15,1,31,0,,,,,,,,,,,,,,,,,,,,,,,,,,,,,,,,,,,,,,,,,,,,,,,,,,,,,,,,,,,,,,,,,,,,,,,,,,,,,,,,,,,1152.5275161999743,1153.4796330999816,1,1,1152.5275161999743,1153.4796330999816,1153.4764649000135,None,0.3640562000218779,,,,,,,,,,,,,,,,,,,,,,,,,,,,,,,1104-t1,001,2,1,2022_Mar_21_1525,task_complete_blocked_LC_updated,2021.2.3,236.7284133294798,
,,,O,2,,,,,,,,,,,,,,,,,,,,,,,,,,,,,,,,,,,16,0,32,1,,,,,,,,,,,,,,,,,,,,,,,,,,,,,,,,,,,,,,,,,,,,,,,,,,,,,,,,,,,,,,,,,,,,,,,,,,,,,,,,,,,1153.5263877999969,1154.4787245999905,2,1,1153.5263877999969,1154.4787245999905,1154.4754088000045,None,0.3204219000181183,,,,,,,,,,,,,,,,,,,,,,,,,,,,,,,1104-t1,001,2,1,2022_Mar_21_1525,task_complete_blocked_LC_updated,2021.2.3,236.7284133294798,
