stimImg,taskType,audTrial,letter,correctResponse,familiarCorrect,sourceCorrect,encode_trials1.thisRepN,encode_trials1.thisTrialN,encode_trials1.thisN,encode_trials1.thisIndex,encode_trials2.thisRepN,encode_trials2.thisTrialN,encode_trials2.thisN,encode_trials2.thisIndex,distractor.thisRepN,distractor.thisTrialN,distractor.thisN,distractor.thisIndex,encode_trials3.thisRepN,encode_trials3.thisTrialN,encode_trials3.thisN,encode_trials3.thisIndex,encode_trials4.thisRepN,encode_trials4.thisTrialN,encode_trials4.thisN,encode_trials4.thisIndex,distractor_2.thisRepN,distractor_2.thisTrialN,distractor_2.thisN,distractor_2.thisIndex,encode_trials5.thisRepN,encode_trials5.thisTrialN,encode_trials5.thisN,encode_trials5.thisIndex,encode_trials6.thisRepN,encode_trials6.thisTrialN,encode_trials6.thisN,encode_trials6.thisIndex,distractor3.thisRepN,distractor3.thisTrialN,distractor3.thisN,distractor3.thisIndex,encode_trials7.thisRepN,encode_trials7.thisTrialN,encode_trials7.thisN,encode_trials7.thisIndex,encode_trials8.thisRepN,encode_trials8.thisTrialN,encode_trials8.thisN,encode_trials8.thisIndex,distractor4.thisRepN,distractor4.thisTrialN,distractor4.thisN,distractor4.thisIndex,retrieval_trials1.thisRepN,retrieval_trials1.thisTrialN,retrieval_trials1.thisN,retrieval_trials1.thisIndex,retrieval_trials2.thisRepN,retrieval_trials2.thisTrialN,retrieval_trials2.thisN,retrieval_trials2.thisIndex,retrieval_trials3.thisRepN,retrieval_trials3.thisTrialN,retrieval_trials3.thisN,retrieval_trials3.thisIndex,retrieval_trials4.thisRepN,retrieval_trials4.thisTrialN,retrieval_trials4.thisN,retrieval_trials4.thisIndex,button_check_1.started,button_check_1.stopped,button_check_resp_1.keys,button_check_resp_1.rt,button_check_resp_1.started,button_check_resp_1.stopped,text_2.started,text_2.stopped,key_resp_3.keys,key_resp_3.rt,key_resp_3.started,key_resp_3.stopped,text_3.started,text_3.stopped,key_resp_4.keys,key_resp_4.rt,key_resp_4.started,key_resp_4.stopped,text_4.started,text_4.stopped,key_resp_5.keys,key_resp_5.rt,key_resp_5.started,key_resp_5.stopped,wait_text.started,wait_text.stopped,scanner_pulse.keys,scanner_pulse.rt,scanner_pulse.started,scanner_pulse.stopped,Trial_cue_onset,instruction.started,instruction.stopped,image_3.started,image_3.stopped,in_.started,in_.stopped,source_cue.started,source_cue.stopped,fixation.started,fixation.stopped,Response_cue_onset,rating.started,rating.stopped,text.started,text.stopped,rating_resp.keys,rating_resp.rt,rating_resp.started,rating_resp.stopped,text_16.started,text_16.stopped,instruc.started,instruc.stopped,distractor_task.started,distractor_task.stopped,distractor_task_resp.keys,distractor_task_resp.corr,distractor_task_resp.rt,distractor_task_resp.started,distractor_task_resp.stopped,flicker.started,flicker.stopped,end_screen.started,end_screen.stopped,spacebar_press.keys,spacebar_press.rt,spacebar_press.started,spacebar_press.stopped,one_moment.started,one_moment.stopped,Trial_familiarity_onset,item_rec.started,item_rec.stopped,image_4.started,image_4.stopped,item_rec_guide.started,item_rec_guide.stopped,item_rec_resp.keys,item_rec_resp.corr,item_rec_resp.rt,item_rec_resp.started,item_rec_resp.stopped,Trial_source_onset,source_rec.started,source_rec.stopped,source_rec_resp.keys,source_rec_resp.corr,source_rec_resp.rt,source_rec_resp.started,source_rec_resp.stopped,text_14.started,text_14.stopped,participant,session,group,university,date,expName,psychopyVersion,frameRate,
,,,,,,,,,,,,,,,,,,,,,,,,,,,,,,,,,,,,,,,,,,,,,,,,,,,,,,,,,,,,,,,,,,,,,,,18.91176180006005,None,1,5.80436829989776,18.91176180006005,None,,,,,,,,,,,,,,,,,,,,,,,,,,,,,,,,,,,,,,,,,,,,,,,,,,,,,,,,,,,,,,,,,,,,,,,,,,,,,,,,,,,,,,,,1102_t2,002,2,1,2022_Mar_16_1625,task_complete_blocked_LC_updated,2021.2.3,238.8932553537909,
,,,,,,,,,,,,,,,,,,,,,,,,,,,,,,,,,,,,,,,,,,,,,,,,,,,,,,,,,,,,,,,,,,,,,,,,,,,,,24.726847199955955,None,2,0.6285253999521956,24.726847199955955,None,,,,,,,,,,,,,,,,,,,,,,,,,,,,,,,,,,,,,,,,,,,,,,,,,,,,,,,,,,,,,,,,,,,,,,,,,,,,,,,,,,1102_t2,002,2,1,2022_Mar_16_1625,task_complete_blocked_LC_updated,2021.2.3,238.8932553537909,
,,,,,,,,,,,,,,,,,,,,,,,,,,,,,,,,,,,,,,,,,,,,,,,,,,,,,,,,,,,,,,,,,,,,,,,,,,,,,,,,,,,25.361727999988943,None,3,0.5335312000242993,25.361727999988943,None,,,,,,,,,,,,,,,,,,,,,,,,,,,,,,,,,,,,,,,,,,,,,,,,,,,,,,,,,,,,,,,,,,,,,,,,,,,,1102_t2,002,2,1,2022_Mar_16_1625,task_complete_blocked_LC_updated,2021.2.3,238.8932553537909,
,,,,,,,,,,,,,,,,,,,,,,,,,,,,,,,,,,,,,,,,,,,,,,,,,,,,,,,,,,,,,,,,,,,,,,,,,,,,,,,,,,,,,,,,,25.904856399982236,None,4,0.4312900999793783,25.904856399982236,None,,,,,,,,,,,,,,,,,,,,,,,,,,,,,,,,,,,,,,,,,,,,,,,,,,,,,,,,,,,,,,,,,,,,,,1102_t2,002,2,1,2022_Mar_16_1625,task_complete_blocked_LC_updated,2021.2.3,238.8932553537909,
,,,,,,,,,,,,,,,,,,,,,,,,,,,,,,,,,,,,,,,,,,,,,,,,,,,,,,,,,,,,,,,,,,,,,,,,,,,,,,,,,,,,,,,,,,,,,,,26.347323199966922,None,5,100.41477679996751,26.347323199966922,None,,,,,,,,,,,,,,,,,,,,,,,,,,,,,,,,,,,,,,,,,,,,,,,,,,,,,,,,,,,,,,,,1102_t2,002,2,1,2022_Mar_16_1625,task_complete_blocked_LC_updated,2021.2.3,238.8932553537909,
stimulus_images/Acomputerdriv.jpg,SPACE,0,,,,,0,0,0,5,,,,,,,,,,,,,,,,,,,,,,,,,,,,,,,,,,,,,,,,,,,,,,,,,,,,,,,,,,,,,,,,,,,,,,,,,,,,,,,,,,,,,,,,,,,2.900022082030773e-06,126.80311300000176,128.80307170003653,126.80311300000176,128.80307170003653,127.79438119998667,128.79278649995103,127.79438119998667,128.79278649995103,128.79678970004898,None,5.985510700033046,132.77910919999704,None,132.77910919999704,None,3,0.5807272999081761,132.77910919999704,None,138.77449320000596,None,,,,,,,,,,,,,,,,,,,,,,,,,,,,,,,,,,,,,,,,,,1102_t2,002,2,1,2022_Mar_16_1625,task_complete_blocked_LC_updated,2021.2.3,238.8932553537909,
stimulus_images/ABALLYAR4.jpg,SPACE,0,,,,,0,1,1,1,,,,,,,,,,,,,,,,,,,,,,,,,,,,,,,,,,,,,,,,,,,,,,,,,,,,,,,,,,,,,,,,,,,,,,,,,,,,,,,,,,,,,,,,,,,13.982273099943995,140.7783584999852,142.7825716000516,140.7783584999852,142.7825716000516,141.77362059999723,142.77584580006078,141.77362059999723,142.77584580006078,142.77211759996135,None,19.982882399926893,146.77536960004363,None,146.77536960004363,None,2,0.3050619000568986,146.77536960004363,None,152.77885180001613,None,,,,,,,,,,,,,,,,,,,,,,,,,,,,,,,,,,,,,,,,,,1102_t2,002,2,1,2022_Mar_16_1625,task_complete_blocked_LC_updated,2021.2.3,238.8932553537909,
stimulus_images/AOTOSCOP5.jpg,SPACE,0,,,,,0,2,2,9,,,,,,,,,,,,,,,,,,,,,,,,,,,,,,,,,,,,,,,,,,,,,,,,,,,,,,,,,,,,,,,,,,,,,,,,,,,,,,,,,,,,,,,,,,,27.987183999968693,154.78414969996084,156.78337319998536,154.78414969996084,156.78337319998536,155.78030400001444,156.78337319998536,155.78030400001444,156.78337319998536,156.77985920000356,None,33.9894820000045,160.78207179997116,None,160.78207179997116,None,4,0.5234043999807909,160.78207179997116,None,166.78410689998418,None,,,,,,,,,,,,,,,,,,,,,,,,,,,,,,,,,,,,,,,,,,1102_t2,002,2,1,2022_Mar_16_1625,task_complete_blocked_LC_updated,2021.2.3,238.8932553537909,
stimulus_images/Aboxofchocola.jpg,SPACE,0,,,,,0,3,3,3,,,,,,,,,,,,,,,,,,,,,,,,,,,,,,,,,,,,,,,,,,,,,,,,,,,,,,,,,,,,,,,,,,,,,,,,,,,,,,,,,,,,,,,,,,,42.99540419992991,169.79128430003766,171.79575789999217,169.79128430003766,171.79575789999217,170.7865254000062,171.7860322999768,170.7865254000062,171.7860322999768,171.7860322999768,None,48.99509959993884,175.78740350005683,None,175.78740350005683,None,4,0.8269129999680445,175.78740350005683,None,181.78908290003892,None,,,,,,,,,,,,,,,,,,,,,,,,,,,,,,,,,,,,,,,,,,1102_t2,002,2,1,2022_Mar_16_1625,task_complete_blocked_LC_updated,2021.2.3,238.8932553537909,
stimulus_images/AARMCHA25.jpg,SPACE,0,,,,,0,4,4,0,,,,,,,,,,,,,,,,,,,,,,,,,,,,,,,,,,,,,,,,,,,,,,,,,,,,,,,,,,,,,,,,,,,,,,,,,,,,,,,,,,,,,,,,,,,57.999450300005265,184.79527370003052,186.80036890006159,184.79527370003052,186.80036890006159,185.79223799996544,186.79611760005355,185.79223799996544,186.79611760005355,186.79611760005355,None,64.00209830002859,190.7946150000207,None,190.7946150000207,None,3,1.0096313999965787,190.7946150000207,None,196.79505079996306,None,,,,,,,,,,,,,,,,,,,,,,,,,,,,,,,,,,,,,,,,,,1102_t2,002,2,1,2022_Mar_16_1625,task_complete_blocked_LC_updated,2021.2.3,238.8932553537909,
stimulus_images/Agiftbag20.jpg,SPACE,1,,,,,0,5,5,7,,,,,,,,,,,,,,,,,,,,,,,,,,,,,,,,,,,,,,,,,,,,,,,,,,,,,,,,,,,,,,,,,,,,,,,,,,,,,,,,,,,,,,,,,,,73.00394229998346,199.80152280000038,201.80634959996678,199.80152280000038,201.80634959996678,200.79522870003711,201.79620219999924,200.79522870003711,201.79620219999924,201.79620219999924,None,79.00643680000212,205.79895870003384,None,205.79895870003384,None,4,0.7931674000574276,205.79895870003384,None,211.8005579999881,None,,,,,,,,,,,,,,,,,,,,,,,,,,,,,,,,,,,,,,,,,,1102_t2,002,2,1,2022_Mar_16_1625,task_complete_blocked_LC_updated,2021.2.3,238.8932553537909,
stimulus_images/ABILLTABL.jpg,SPACE,1,,,,,0,6,6,2,,,,,,,,,,,,,,,,,,,,,,,,,,,,,,,,,,,,,,,,,,,,,,,,,,,,,,,,,,,,,,,,,,,,,,,,,,,,,,,,,,,,,,,,,,,88.01274369994644,214.81589700002223,216.81599659996573,214.81589700002223,216.81599659996573,215.81642689998262,216.81599659996573,215.81642689998262,216.81599659996573,216.81599659996573,None,94.01463709992822,220.8073410000652,None,220.8073410000652,None,2,0.6850355999777094,220.8073410000652,None,226.80605969997123,None,,,,,,,,,,,,,,,,,,,,,,,,,,,,,,,,,,,,,,,,,,1102_t2,002,2,1,2022_Mar_16_1625,task_complete_blocked_LC_updated,2021.2.3,238.8932553537909,
stimulus_images/Aeasteregg14.jpg,SPACE,0,,,,,0,7,7,6,,,,,,,,,,,,,,,,,,,,,,,,,,,,,,,,,,,,,,,,,,,,,,,,,,,,,,,,,,,,,,,,,,,,,,,,,,,,,,,,,,,,,,,,,,,101.01659190002829,227.81964869995136,229.82468660001177,227.81964869995136,229.82468660001177,228.81707410002127,229.82468660001177,228.81707410002127,229.82468660001177,229.82116349996068,None,107.0190213000169,233.8115951999789,None,233.8115951999789,None,1,0.7254803000250831,233.8115951999789,None,239.81162829999812,None,,,,,,,,,,,,,,,,,,,,,,,,,,,,,,,,,,,,,,,,,,1102_t2,002,2,1,2022_Mar_16_1625,task_complete_blocked_LC_updated,2021.2.3,238.8932553537909,
stimulus_images/ACAROSLI2.jpg,SPACE,0,,,,,0,8,8,4,,,,,,,,,,,,,,,,,,,,,,,,,,,,,,,,,,,,,,,,,,,,,,,,,,,,,,,,,,,,,,,,,,,,,,,,,,,,,,,,,,,,,,,,,,,114.02084959996864,240.81692230002955,242.81864569999743,240.81692230002955,242.81864569999743,241.8130647999933,242.81556380004622,241.8130647999933,242.81556380004622,242.81168469996192,None,120.02044550003484,246.81303810002282,None,246.81303810002282,None,4,0.4153970000334084,246.81303810002282,None,252.81702890002634,None,,,,,,,,,,,,,,,,,,,,,,,,,,,,,,,,,,,,,,,,,,1102_t2,002,2,1,2022_Mar_16_1625,task_complete_blocked_LC_updated,2021.2.3,238.8932553537909,
stimulus_images/AICESKAT8.jpg,SPACE,0,,,,,0,9,9,8,,,,,,,,,,,,,,,,,,,,,,,,,,,,,,,,,,,,,,,,,,,,,,,,,,,,,,,,,,,,,,,,,,,,,,,,,,,,,,,,,,,,,,,,,,,129.02880949992687,255.83247120003216,257.8338499000529,255.83247120003216,257.8338499000529,256.8288787000347,257.8305110000074,256.8288787000347,257.8305110000074,257.8267446999671,None,135.03245699999388,261.825007300009,None,261.825007300009,None,4,0.7438829999882728,261.825007300009,None,267.8259524999885,None,,,,,,,,,,,,,,,,,,,,,,,,,,,,,,,,,,,,,,,,,,1102_t2,002,2,1,2022_Mar_16_1625,task_complete_blocked_LC_updated,2021.2.3,238.8932553537909,
stimulus_images/A25thdec3.jpg,SPACE,0,,,,,,,,,0,0,0,4,,,,,,,,,,,,,,,,,,,,,,,,,,,,,,,,,,,,,,,,,,,,,,,,,,,,,,,,,,,,,,,,,,,,,,,,,,,,,,,,,,,,,,,143.04468950000592,269.8481011999538,271.8521319000283,269.8481011999538,271.8521319000283,270.84687380003743,271.8521319000283,270.84687380003743,271.8521319000283,271.8490096000023,None,149.0467507999856,275.8390677999705,None,275.8390677999705,None,4,0.5568175999214873,275.8390677999705,None,281.8303852999816,None,,,,,,,,,,,,,,,,,,,,,,,,,,,,,,,,,,,,,,,,,,1102_t2,002,2,1,2022_Mar_16_1625,task_complete_blocked_LC_updated,2021.2.3,238.8932553537909,
stimulus_images/Aantiquerota7.jpg,SPACE,0,,,,,,,,,0,1,1,6,,,,,,,,,,,,,,,,,,,,,,,,,,,,,,,,,,,,,,,,,,,,,,,,,,,,,,,,,,,,,,,,,,,,,,,,,,,,,,,,,,,,,,,156.04172620002646,282.8446687000105,284.84957349998876,282.8446687000105,284.84957349998876,283.85007030004635,284.8535463999724,283.85007030004635,284.8535463999724,284.844285500003,None,162.04426009999588,288.83692290005274,None,288.83692290005274,None,3,0.4903219999978319,288.83692290005274,None,294.83871839998756,None,,,,,,,,,,,,,,,,,,,,,,,,,,,,,,,,,,,,,,,,,,1102_t2,002,2,1,2022_Mar_16_1625,task_complete_blocked_LC_updated,2021.2.3,238.8932553537909,
stimulus_images/Abackpack11.jpg,SPACE,1,,,,,,,,,0,2,2,7,,,,,,,,,,,,,,,,,,,,,,,,,,,,,,,,,,,,,,,,,,,,,,,,,,,,,,,,,,,,,,,,,,,,,,,,,,,,,,,,,,,,,,,171.04706220002845,297.84995850000996,299.84975719999056,297.84995850000996,299.84975719999056,298.8454858000623,299.8467210000381,298.8454858000623,299.8467210000381,299.8467210000381,None,177.04848909995053,303.8410290000029,None,303.8410290000029,None,3,0.42571209999732673,303.8410290000029,None,309.8439423000673,None,,,,,,,,,,,,,,,,,,,,,,,,,,,,,,,,,,,,,,,,,,1102_t2,002,2,1,2022_Mar_16_1625,task_complete_blocked_LC_updated,2021.2.3,238.8932553537909,
stimulus_images/corkscrew02.jpg,SPACE,0,,,,,,,,,0,3,3,2,,,,,,,,,,,,,,,,,,,,,,,,,,,,,,,,,,,,,,,,,,,,,,,,,,,,,,,,,,,,,,,,,,,,,,,,,,,,,,,,,,,,,,,185.05467879993375,311.85645620001014,313.85482849995606,311.85645620001014,313.85482849995606,312.8541100999573,313.85482849995606,312.8541100999573,313.85482849995606,313.85179570002947,None,191.05701839993708,317.8501111000078,None,317.8501111000078,None,3,0.393823399906978,317.8501111000078,None,323.85196630004793,None,,,,,,,,,,,,,,,,,,,,,,,,,,,,,,,,,,,,,,,,,,1102_t2,002,2,1,2022_Mar_16_1625,task_complete_blocked_LC_updated,2021.2.3,238.8932553537909,
stimulus_images/Aboots56.jpg,SPACE,0,,,,,,,,,0,4,4,9,,,,,,,,,,,,,,,,,,,,,,,,,,,,,,,,,,,,,,,,,,,,,,,,,,,,,,,,,,,,,,,,,,,,,,,,,,,,,,,,,,,,,,,199.06294380000327,325.85881959996186,327.85960099997465,325.85881959996186,327.85960099997465,326.85412010003347,327.8563261999516,326.85412010003347,327.8563261999516,327.8526183000067,None,205.0630792999873,331.8552349000238,None,331.8552349000238,None,4,0.8313077000202611,331.8552349000238,None,337.8612809999613,None,,,,,,,,,,,,,,,,,,,,,,,,,,,,,,,,,,,,,,,,,,1102_t2,002,2,1,2022_Mar_16_1625,task_complete_blocked_LC_updated,2021.2.3,238.8932553537909,
stimulus_images/Atelescope2.jpg,SPACE,1,,,,,,,,,0,5,5,1,,,,,,,,,,,,,,,,,,,,,,,,,,,,,,,,,,,,,,,,,,,,,,,,,,,,,,,,,,,,,,,,,,,,,,,,,,,,,,,,,,,,,,,212.071291500004,338.86809370003175,340.8671640000539,338.86809370003175,340.8671640000539,339.86230170005,340.86425079999026,339.86230170005,340.86425079999026,340.86425079999026,None,218.07418749993667,344.8664134000428,None,344.8664134000428,None,4,1.2126295999623835,344.8664134000428,None,350.8674845000496,None,,,,,,,,,,,,,,,,,,,,,,,,,,,,,,,,,,,,,,,,,,1102_t2,002,2,1,2022_Mar_16_1625,task_complete_blocked_LC_updated,2021.2.3,238.8932553537909,
stimulus_images/Abasketofbrea.jpg,SPACE,0,,,,,,,,,0,6,6,8,,,,,,,,,,,,,,,,,,,,,,,,,,,,,,,,,,,,,,,,,,,,,,,,,,,,,,,,,,,,,,,,,,,,,,,,,,,,,,,,,,,,,,,226.07571529992856,352.8780705999816,354.87914440000895,352.8780705999816,354.87914440000895,353.8751931999577,354.8747386999894,353.8751931999577,354.8747386999894,354.8747386999894,None,232.0779342999449,358.8705183999846,None,358.8705183999846,None,2,0.6844472999218851,358.8705183999846,None,364.8739420999773,None,,,,,,,,,,,,,,,,,,,,,,,,,,,,,,,,,,,,,,,,,,1102_t2,002,2,1,2022_Mar_16_1625,task_complete_blocked_LC_updated,2021.2.3,238.8932553537909,
stimulus_images/AALTIRE2.jpg,SPACE,0,,,,,,,,,0,7,7,5,,,,,,,,,,,,,,,,,,,,,,,,,,,,,,,,,,,,,,,,,,,,,,,,,,,,,,,,,,,,,,,,,,,,,,,,,,,,,,,,,,,,,,,239.08368649997283,365.8850821000524,367.89194750005845,365.8850821000524,367.89194750005845,366.88324630004354,367.8865839999635,366.88324630004354,367.8865839999635,367.8865839999635,None,245.08638290001545,371.87894860003144,None,371.87894860003144,None,1,0.4430798999965191,371.87894860003144,None,377.87833690003026,None,,,,,,,,,,,,,,,,,,,,,,,,,,,,,,,,,,,,,,,,,,1102_t2,002,2,1,2022_Mar_16_1625,task_complete_blocked_LC_updated,2021.2.3,238.8932553537909,
stimulus_images/Aroadsignin15.jpg,SPACE,1,,,,,,,,,0,8,8,0,,,,,,,,,,,,,,,,,,,,,,,,,,,,,,,,,,,,,,,,,,,,,,,,,,,,,,,,,,,,,,,,,,,,,,,,,,,,,,,,,,,,,,,253.08864859992173,379.8856771000428,381.8937071999535,379.8856771000428,381.8937071999535,380.87910480005667,381.8785581999691,380.87910480005667,381.8785581999691,381.8785581999691,None,259.087726400001,385.88013249996584,None,385.88013249996584,None,2,1.0566356999333948,385.88013249996584,None,391.8821338999551,None,,,,,,,,,,,,,,,,,,,,,,,,,,,,,,,,,,,,,,,,,,1102_t2,002,2,1,2022_Mar_16_1625,task_complete_blocked_LC_updated,2021.2.3,238.8932553537909,
stimulus_images/wetsuit1.jpg,SPACE,0,,,,,,,,,0,9,9,3,,,,,,,,,,,,,,,,,,,,,,,,,,,,,,,,,,,,,,,,,,,,,,,,,,,,,,,,,,,,,,,,,,,,,,,,,,,,,,,,,,,,,,,267.0945445999969,393.89271070004907,395.893812000053,393.89271070004907,395.893812000053,394.88781690003816,395.8905549000483,394.88781690003816,395.8905549000483,395.8905549000483,None,273.0951756000286,399.88899260002654,None,399.88899260002654,None,3,0.48157250008080155,399.88899260002654,None,405.88747820002027,None,,,,,,,,,,,,,,,,,,,,,,,,,,,,,,,,,,,,,,,,,,1102_t2,002,2,1,2022_Mar_16_1625,task_complete_blocked_LC_updated,2021.2.3,238.8932553537909,
,,,O,2,,,,,,,,,,,0,0,0,1,,,,,,,,,,,,,,,,,,,,,,,,,,,,,,,,,,,,,,,,,,,,,,,,,,,,,,,,,,,,,,,,,,,,,,,,,,,,,,,,,,,,,,,,,,,,,,,,,,,,,,,,,406.8884195999708,None,409.8991368999705,410.84991450002417,2,1,0.711713399970904,409.8991368999705,410.84991450002417,410.8471631000284,None,,,,,,,,,,,,,,,,,,,,,,,,,,,,,,,1102_t2,002,2,1,2022_Mar_16_1625,task_complete_blocked_LC_updated,2021.2.3,238.8932553537909,
,,,X,1,,,,,,,,,,,0,1,1,0,,,,,,,,,,,,,,,,,,,,,,,,,,,,,,,,,,,,,,,,,,,,,,,,,,,,,,,,,,,,,,,,,,,,,,,,,,,,,,,,,,,,,,,,,,,,,,,,,,,,,,,,,,,410.8951932999771,411.8483435000526,1,1,0.5234188999747857,410.8951932999771,411.8483435000526,411.8454656000249,None,,,,,,,,,,,,,,,,,,,,,,,,,,,,,,,1102_t2,002,2,1,2022_Mar_16_1625,task_complete_blocked_LC_updated,2021.2.3,238.8932553537909,
,,,O,2,,,,,,,,,,,1,0,2,1,,,,,,,,,,,,,,,,,,,,,,,,,,,,,,,,,,,,,,,,,,,,,,,,,,,,,,,,,,,,,,,,,,,,,,,,,,,,,,,,,,,,,,,,,,,,,,,,,,,,,,,,,,,411.892628600006,412.8429489999544,2,1,0.2623331999639049,411.892628600006,412.8429489999544,412.8398638999788,None,,,,,,,,,,,,,,,,,,,,,,,,,,,,,,,1102_t2,002,2,1,2022_Mar_16_1625,task_complete_blocked_LC_updated,2021.2.3,238.8932553537909,
,,,X,1,,,,,,,,,,,1,1,3,0,,,,,,,,,,,,,,,,,,,,,,,,,,,,,,,,,,,,,,,,,,,,,,,,,,,,,,,,,,,,,,,,,,,,,,,,,,,,,,,,,,,,,,,,,,,,,,,,,,,,,,,,,,,412.8968732999638,413.8478417999577,1,1,0.25499950000084937,412.8968732999638,413.8478417999577,413.8376813000068,None,,,,,,,,,,,,,,,,,,,,,,,,,,,,,,,1102_t2,002,2,1,2022_Mar_16_1625,task_complete_blocked_LC_updated,2021.2.3,238.8932553537909,
,,,O,2,,,,,,,,,,,2,0,4,1,,,,,,,,,,,,,,,,,,,,,,,,,,,,,,,,,,,,,,,,,,,,,,,,,,,,,,,,,,,,,,,,,,,,,,,,,,,,,,,,,,,,,,,,,,,,,,,,,,,,,,,,,,,413.893340599956,414.84384770004544,2,1,0.3374222000129521,413.893340599956,414.84384770004544,414.841362999985,413.893340599956,,,,,,,,,,,,,,,,,,,,,,,,,,,,,,,1102_t2,002,2,1,2022_Mar_16_1625,task_complete_blocked_LC_updated,2021.2.3,238.8932553537909,
,,,X,1,,,,,,,,,,,2,1,5,0,,,,,,,,,,,,,,,,,,,,,,,,,,,,,,,,,,,,,,,,,,,,,,,,,,,,,,,,,,,,,,,,,,,,,,,,,,,,,,,,,,,,,,,,,,,,,,,,,,,,,,,,,,,414.89259459997993,415.84477750002407,1,1,0.2642842000350356,414.89259459997993,415.84477750002407,415.84142860001884,None,,,,,,,,,,,,,,,,,,,,,,,,,,,,,,,1102_t2,002,2,1,2022_Mar_16_1625,task_complete_blocked_LC_updated,2021.2.3,238.8932553537909,
,,,X,1,,,,,,,,,,,3,0,6,0,,,,,,,,,,,,,,,,,,,,,,,,,,,,,,,,,,,,,,,,,,,,,,,,,,,,,,,,,,,,,,,,,,,,,,,,,,,,,,,,,,,,,,,,,,,,,,,,,,,,,,,,,,,415.89568940002937,416.84742330003064,1,1,0.49614390009082854,415.89568940002937,416.84742330003064,416.84742330003064,None,,,,,,,,,,,,,,,,,,,,,,,,,,,,,,,1102_t2,002,2,1,2022_Mar_16_1625,task_complete_blocked_LC_updated,2021.2.3,238.8932553537909,
,,,O,2,,,,,,,,,,,3,1,7,1,,,,,,,,,,,,,,,,,,,,,,,,,,,,,,,,,,,,,,,,,,,,,,,,,,,,,,,,,,,,,,,,,,,,,,,,,,,,,,,,,,,,,,,,,,,,,,,,,,,,,,,,,,,416.8932491999585,417.84263660002034,2,1,0.2425416000187397,416.8932491999585,417.84263660002034,417.83927860006224,None,,,,,,,,,,,,,,,,,,,,,,,,,,,,,,,1102_t2,002,2,1,2022_Mar_16_1625,task_complete_blocked_LC_updated,2021.2.3,238.8932553537909,
,,,O,2,,,,,,,,,,,4,0,8,1,,,,,,,,,,,,,,,,,,,,,,,,,,,,,,,,,,,,,,,,,,,,,,,,,,,,,,,,,,,,,,,,,,,,,,,,,,,,,,,,,,,,,,,,,,,,,,,,,,,,,,,,,,,417.8917085999856,418.8401860999875,2,1,0.3712895999196917,417.8917085999856,418.8401860999875,418.8370775000658,None,,,,,,,,,,,,,,,,,,,,,,,,,,,,,,,1102_t2,002,2,1,2022_Mar_16_1625,task_complete_blocked_LC_updated,2021.2.3,238.8932553537909,
,,,X,1,,,,,,,,,,,4,1,9,0,,,,,,,,,,,,,,,,,,,,,,,,,,,,,,,,,,,,,,,,,,,,,,,,,,,,,,,,,,,,,,,,,,,,,,,,,,,,,,,,,,,,,,,,,,,,,,,,,,,,,,,,,,,418.893368100049,419.8434675000608,1,1,0.2843926000641659,418.893368100049,419.8434675000608,419.84048839996103,None,,,,,,,,,,,,,,,,,,,,,,,,,,,,,,,1102_t2,002,2,1,2022_Mar_16_1625,task_complete_blocked_LC_updated,2021.2.3,238.8932553537909,
,,,X,1,,,,,,,,,,,5,0,10,0,,,,,,,,,,,,,,,,,,,,,,,,,,,,,,,,,,,,,,,,,,,,,,,,,,,,,,,,,,,,,,,,,,,,,,,,,,,,,,,,,,,,,,,,,,,,,,,,,,,,,,,,,,,419.8918513000244,420.8462299000239,1,1,0.4238288000924513,419.8918513000244,420.8462299000239,420.8420996000059,None,,,,,,,,,,,,,,,,,,,,,,,,,,,,,,,1102_t2,002,2,1,2022_Mar_16_1625,task_complete_blocked_LC_updated,2021.2.3,238.8932553537909,
,,,O,2,,,,,,,,,,,5,1,11,1,,,,,,,,,,,,,,,,,,,,,,,,,,,,,,,,,,,,,,,,,,,,,,,,,,,,,,,,,,,,,,,,,,,,,,,,,,,,,,,,,,,,,,,,,,,,,,,,,,,,,,,,,,,420.89342970005237,421.8431523999898,2,1,0.36007419996894896,420.89342970005237,421.8431523999898,421.8431523999898,None,,,,,,,,,,,,,,,,,,,,,,,,,,,,,,,1102_t2,002,2,1,2022_Mar_16_1625,task_complete_blocked_LC_updated,2021.2.3,238.8932553537909,
,,,O,2,,,,,,,,,,,6,0,12,1,,,,,,,,,,,,,,,,,,,,,,,,,,,,,,,,,,,,,,,,,,,,,,,,,,,,,,,,,,,,,,,,,,,,,,,,,,,,,,,,,,,,,,,,,,,,,,,,,,,,,,,,,,,421.8918874000665,422.8420343999751,2,1,0.4767489000223577,421.8918874000665,422.8420343999751,422.838290899992,None,,,,,,,,,,,,,,,,,,,,,,,,,,,,,,,1102_t2,002,2,1,2022_Mar_16_1625,task_complete_blocked_LC_updated,2021.2.3,238.8932553537909,
,,,X,1,,,,,,,,,,,6,1,13,0,,,,,,,,,,,,,,,,,,,,,,,,,,,,,,,,,,,,,,,,,,,,,,,,,,,,,,,,,,,,,,,,,,,,,,,,,,,,,,,,,,,,,,,,,,,,,,,,,,,,,,,,,,,422.8904679999687,423.83922530000564,1,1,0.3604017000179738,422.8904679999687,423.83922530000564,423.83922530000564,422.8904679999687,,,,,,,,,,,,,,,,,,,,,,,,,,,,,,,1102_t2,002,2,1,2022_Mar_16_1625,task_complete_blocked_LC_updated,2021.2.3,238.8932553537909,
,,,O,2,,,,,,,,,,,7,0,14,1,,,,,,,,,,,,,,,,,,,,,,,,,,,,,,,,,,,,,,,,,,,,,,,,,,,,,,,,,,,,,,,,,,,,,,,,,,,,,,,,,,,,,,,,,,,,,,,,,,,,,,,,,,,423.8932496999623,424.84632270003203,2,1,0.5464290999807417,423.8932496999623,424.84632270003203,424.83685299998615,None,,,,,,,,,,,,,,,,,,,,,,,,,,,,,,,1102_t2,002,2,1,2022_Mar_16_1625,task_complete_blocked_LC_updated,2021.2.3,238.8932553537909,
,,,X,1,,,,,,,,,,,7,1,15,0,,,,,,,,,,,,,,,,,,,,,,,,,,,,,,,,,,,,,,,,,,,,,,,,,,,,,,,,,,,,,,,,,,,,,,,,,,,,,,,,,,,,,,,,,,,,,,,,,,,,,,,,,,,424.89094910002314,425.84353670000564,1,1,0.2579853000352159,424.89094910002314,425.84353670000564,425.8407389000058,424.89094910002314,,,,,,,,,,,,,,,,,,,,,,,,,,,,,,,1102_t2,002,2,1,2022_Mar_16_1625,task_complete_blocked_LC_updated,2021.2.3,238.8932553537909,
,,,O,2,,,,,,,,,,,8,0,16,1,,,,,,,,,,,,,,,,,,,,,,,,,,,,,,,,,,,,,,,,,,,,,,,,,,,,,,,,,,,,,,,,,,,,,,,,,,,,,,,,,,,,,,,,,,,,,,,,,,,,,,,,,,,425.892807599972,426.84491750004236,2,1,0.32590980001259595,425.892807599972,426.84491750004236,426.84171549999155,None,,,,,,,,,,,,,,,,,,,,,,,,,,,,,,,1102_t2,002,2,1,2022_Mar_16_1625,task_complete_blocked_LC_updated,2021.2.3,238.8932553537909,
,,,X,1,,,,,,,,,,,8,1,17,0,,,,,,,,,,,,,,,,,,,,,,,,,,,,,,,,,,,,,,,,,,,,,,,,,,,,,,,,,,,,,,,,,,,,,,,,,,,,,,,,,,,,,,,,,,,,,,,,,,,,,,,,,,,426.8928156000329,427.84221949998755,1,1,0.28818280005361885,426.8928156000329,427.84221949998755,427.8377966999542,None,,,,,,,,,,,,,,,,,,,,,,,,,,,,,,,1102_t2,002,2,1,2022_Mar_16_1625,task_complete_blocked_LC_updated,2021.2.3,238.8932553537909,
,,,X,1,,,,,,,,,,,9,0,18,0,,,,,,,,,,,,,,,,,,,,,,,,,,,,,,,,,,,,,,,,,,,,,,,,,,,,,,,,,,,,,,,,,,,,,,,,,,,,,,,,,,,,,,,,,,,,,,,,,,,,,,,,,,,427.8892644000007,428.84058620000724,1,1,0.2995567999314517,427.8892644000007,428.84058620000724,428.83700439997483,427.8892644000007,,,,,,,,,,,,,,,,,,,,,,,,,,,,,,,1102_t2,002,2,1,2022_Mar_16_1625,task_complete_blocked_LC_updated,2021.2.3,238.8932553537909,
,,,O,2,,,,,,,,,,,9,1,19,1,,,,,,,,,,,,,,,,,,,,,,,,,,,,,,,,,,,,,,,,,,,,,,,,,,,,,,,,,,,,,,,,,,,,,,,,,,,,,,,,,,,,,,,,,,,,,,,,,,,,,,,,,,,428.8905414000619,429.8422925999621,2,1,0.23743300000205636,428.8905414000619,429.8422925999621,429.8388835999649,428.8905414000619,,,,,,,,,,,,,,,,,,,,,,,,,,,,,,,1102_t2,002,2,1,2022_Mar_16_1625,task_complete_blocked_LC_updated,2021.2.3,238.8932553537909,
,,,O,2,,,,,,,,,,,10,0,20,1,,,,,,,,,,,,,,,,,,,,,,,,,,,,,,,,,,,,,,,,,,,,,,,,,,,,,,,,,,,,,,,,,,,,,,,,,,,,,,,,,,,,,,,,,,,,,,,,,,,,,,,,,,,429.89216970000416,430.8419856999535,2,1,0.3067180000944063,429.89216970000416,430.8419856999535,430.838724500034,None,,,,,,,,,,,,,,,,,,,,,,,,,,,,,,,1102_t2,002,2,1,2022_Mar_16_1625,task_complete_blocked_LC_updated,2021.2.3,238.8932553537909,
,,,X,1,,,,,,,,,,,10,1,21,0,,,,,,,,,,,,,,,,,,,,,,,,,,,,,,,,,,,,,,,,,,,,,,,,,,,,,,,,,,,,,,,,,,,,,,,,,,,,,,,,,,,,,,,,,,,,,,,,,,,,,,,,,,,430.89207709999755,431.8418521999847,1,1,0.2868898999877274,430.89207709999755,431.8418521999847,431.8391842000419,None,,,,,,,,,,,,,,,,,,,,,,,,,,,,,,,1102_t2,002,2,1,2022_Mar_16_1625,task_complete_blocked_LC_updated,2021.2.3,238.8932553537909,
,,,O,2,,,,,,,,,,,11,0,22,1,,,,,,,,,,,,,,,,,,,,,,,,,,,,,,,,,,,,,,,,,,,,,,,,,,,,,,,,,,,,,,,,,,,,,,,,,,,,,,,,,,,,,,,,,,,,,,,,,,,,,,,,,,,431.8925372000085,432.8439483999973,2,1,0.4033039999194443,431.8925372000085,432.8439483999973,432.8406904999865,None,,,,,,,,,,,,,,,,,,,,,,,,,,,,,,,1102_t2,002,2,1,2022_Mar_16_1625,task_complete_blocked_LC_updated,2021.2.3,238.8932553537909,
,,,X,1,,,,,,,,,,,11,1,23,0,,,,,,,,,,,,,,,,,,,,,,,,,,,,,,,,,,,,,,,,,,,,,,,,,,,,,,,,,,,,,,,,,,,,,,,,,,,,,,,,,,,,,,,,,,,,,,,,,,,,,,,,,,,432.89321090001613,433.844693299965,1,1,0.28821610007435083,432.89321090001613,433.844693299965,433.8412046000594,None,,,,,,,,,,,,,,,,,,,,,,,,,,,,,,,1102_t2,002,2,1,2022_Mar_16_1625,task_complete_blocked_LC_updated,2021.2.3,238.8932553537909,
,,,X,1,,,,,,,,,,,12,0,24,0,,,,,,,,,,,,,,,,,,,,,,,,,,,,,,,,,,,,,,,,,,,,,,,,,,,,,,,,,,,,,,,,,,,,,,,,,,,,,,,,,,,,,,,,,,,,,,,,,,,,,,,,,,,433.8916809000075,434.8391651000129,1,1,0.43431479996070266,433.8916809000075,434.8391651000129,434.8365512000164,None,,,,,,,,,,,,,,,,,,,,,,,,,,,,,,,1102_t2,002,2,1,2022_Mar_16_1625,task_complete_blocked_LC_updated,2021.2.3,238.8932553537909,
,,,O,2,,,,,,,,,,,12,1,25,1,,,,,,,,,,,,,,,,,,,,,,,,,,,,,,,,,,,,,,,,,,,,,,,,,,,,,,,,,,,,,,,,,,,,,,,,,,,,,,,,,,,,,,,,,,,,,,,,,,,,,,,,,,,434.89211230003275,435.8451049999567,2,1,0.26322580000851303,434.89211230003275,435.8451049999567,435.8416722000111,434.89211230003275,,,,,,,,,,,,,,,,,,,,,,,,,,,,,,,1102_t2,002,2,1,2022_Mar_16_1625,task_complete_blocked_LC_updated,2021.2.3,238.8932553537909,
,,,O,2,,,,,,,,,,,13,0,26,1,,,,,,,,,,,,,,,,,,,,,,,,,,,,,,,,,,,,,,,,,,,,,,,,,,,,,,,,,,,,,,,,,,,,,,,,,,,,,,,,,,,,,,,,,,,,,,,,,,,,,,,,,,,435.8949553000275,436.8429777000565,2,1,0.3385532000102103,435.8949553000275,436.8429777000565,436.8401062999619,None,,,,,,,,,,,,,,,,,,,,,,,,,,,,,,,1102_t2,002,2,1,2022_Mar_16_1625,task_complete_blocked_LC_updated,2021.2.3,238.8932553537909,
,,,X,1,,,,,,,,,,,13,1,27,0,,,,,,,,,,,,,,,,,,,,,,,,,,,,,,,,,,,,,,,,,,,,,,,,,,,,,,,,,,,,,,,,,,,,,,,,,,,,,,,,,,,,,,,,,,,,,,,,,,,,,,,,,,,436.8925045999931,437.8427140000276,1,1,0.22949379996862262,436.8925045999931,437.8427140000276,437.83907490002457,None,,,,,,,,,,,,,,,,,,,,,,,,,,,,,,,1102_t2,002,2,1,2022_Mar_16_1625,task_complete_blocked_LC_updated,2021.2.3,238.8932553537909,
,,,X,1,,,,,,,,,,,14,0,28,0,,,,,,,,,,,,,,,,,,,,,,,,,,,,,,,,,,,,,,,,,,,,,,,,,,,,,,,,,,,,,,,,,,,,,,,,,,,,,,,,,,,,,,,,,,,,,,,,,,,,,,,,,,,437.8911500000395,438.84234870004,1,1,0.4537997000152245,437.8911500000395,438.84234870004,438.83969849999994,437.8911500000395,,,,,,,,,,,,,,,,,,,,,,,,,,,,,,,1102_t2,002,2,1,2022_Mar_16_1625,task_complete_blocked_LC_updated,2021.2.3,238.8932553537909,
,,,O,2,,,,,,,,,,,14,1,29,1,,,,,,,,,,,,,,,,,,,,,,,,,,,,,,,,,,,,,,,,,,,,,,,,,,,,,,,,,,,,,,,,,,,,,,,,,,,,,,,,,,,,,,,,,,,,,,,,,,,,,,,,,,,438.8919677999802,439.8441345000174,2,1,0.41167739999946207,438.8919677999802,439.8441345000174,439.8408228000626,438.8919677999802,,,,,,,,,,,,,,,,,,,,,,,,,,,,,,,1102_t2,002,2,1,2022_Mar_16_1625,task_complete_blocked_LC_updated,2021.2.3,238.8932553537909,
,,,X,1,,,,,,,,,,,15,0,30,0,,,,,,,,,,,,,,,,,,,,,,,,,,,,,,,,,,,,,,,,,,,,,,,,,,,,,,,,,,,,,,,,,,,,,,,,,,,,,,,,,,,,,,,,,,,,,,,,,,,,,,,,,,,439.8928049999522,440.8440849999897,1,1,0.4148355000652373,439.8928049999522,440.8440849999897,440.84142630000133,None,,,,,,,,,,,,,,,,,,,,,,,,,,,,,,,1102_t2,002,2,1,2022_Mar_16_1625,task_complete_blocked_LC_updated,2021.2.3,238.8932553537909,
,,,O,2,,,,,,,,,,,15,1,31,1,,,,,,,,,,,,,,,,,,,,,,,,,,,,,,,,,,,,,,,,,,,,,,,,,,,,,,,,,,,,,,,,,,,,,,,,,,,,,,,,,,,,,,,,,,,,,,,,,,,,,,,,,,,440.8926322000334,441.84340060001705,2,1,0.3361522000050172,440.8926322000334,441.84340060001705,441.84065290004946,None,,,,,,,,,,,,,,,,,,,,,,,,,,,,,,,1102_t2,002,2,1,2022_Mar_16_1625,task_complete_blocked_LC_updated,2021.2.3,238.8932553537909,
,,,X,1,,,,,,,,,,,16,0,32,0,,,,,,,,,,,,,,,,,,,,,,,,,,,,,,,,,,,,,,,,,,,,,,,,,,,,,,,,,,,,,,,,,,,,,,,,,,,,,,,,,,,,,,,,,,,,,,,,,,,,,,,,,,,441.89252290001605,442.8436074999627,1,1,0.3992898999713361,441.89252290001605,442.8436074999627,442.8400455999654,None,,,,,,,,,,,,,,,,,,,,,,,,,,,,,,,1102_t2,002,2,1,2022_Mar_16_1625,task_complete_blocked_LC_updated,2021.2.3,238.8932553537909,
,,,O,2,,,,,,,,,,,16,1,33,1,,,,,,,,,,,,,,,,,,,,,,,,,,,,,,,,,,,,,,,,,,,,,,,,,,,,,,,,,,,,,,,,,,,,,,,,,,,,,,,,,,,,,,,,,,,,,,,,,,,,,,,,,,,442.8932436000323,443.84656119998544,2,1,0.296176900039427,442.8932436000323,443.84656119998544,443.84314130002167,None,,,,,,,,,,,,,,,,,,,,,,,,,,,,,,,1102_t2,002,2,1,2022_Mar_16_1625,task_complete_blocked_LC_updated,2021.2.3,238.8932553537909,
,,,X,1,,,,,,,,,,,17,0,34,0,,,,,,,,,,,,,,,,,,,,,,,,,,,,,,,,,,,,,,,,,,,,,,,,,,,,,,,,,,,,,,,,,,,,,,,,,,,,,,,,,,,,,,,,,,,,,,,,,,,,,,,,,,,443.89375130005646,444.8435628999723,1,1,0.40185789996758103,443.89375130005646,444.8435628999723,444.84020189999137,None,,,,,,,,,,,,,,,,,,,,,,,,,,,,,,,1102_t2,002,2,1,2022_Mar_16_1625,task_complete_blocked_LC_updated,2021.2.3,238.8932553537909,
,,,O,2,,,,,,,,,,,17,1,35,1,,,,,,,,,,,,,,,,,,,,,,,,,,,,,,,,,,,,,,,,,,,,,,,,,,,,,,,,,,,,,,,,,,,,,,,,,,,,,,,,,,,,,,,,,,,,,,,,,,,,,,,,,,,444.89275630004704,445.8442173000658,2,1,0.3084317999891937,444.89275630004704,445.8442173000658,445.8410258999793,None,,,,,,,,,,,,,,,,,,,,,,,,,,,,,,,1102_t2,002,2,1,2022_Mar_16_1625,task_complete_blocked_LC_updated,2021.2.3,238.8932553537909,
,,,O,2,,,,,,,,,,,18,0,36,1,,,,,,,,,,,,,,,,,,,,,,,,,,,,,,,,,,,,,,,,,,,,,,,,,,,,,,,,,,,,,,,,,,,,,,,,,,,,,,,,,,,,,,,,,,,,,,,,,,,,,,,,,,,445.89182250003796,446.8443624000065,2,1,0.4530488000018522,445.89182250003796,446.8443624000065,446.8413977000164,None,,,,,,,,,,,,,,,,,,,,,,,,,,,,,,,1102_t2,002,2,1,2022_Mar_16_1625,task_complete_blocked_LC_updated,2021.2.3,238.8932553537909,
,,,X,1,,,,,,,,,,,18,1,37,0,,,,,,,,,,,,,,,,,,,,,,,,,,,,,,,,,,,,,,,,,,,,,,,,,,,,,,,,,,,,,,,,,,,,,,,,,,,,,,,,,,,,,,,,,,,,,,,,,,,,,,,,,,,446.8930647999514,447.8452869000612,1,1,0.3744470999808982,446.8930647999514,447.8452869000612,447.84218969999347,None,,,,,,,,,,,,,,,,,,,,,,,,,,,,,,,1102_t2,002,2,1,2022_Mar_16_1625,task_complete_blocked_LC_updated,2021.2.3,238.8932553537909,
,,,X,1,,,,,,,,,,,19,0,38,0,,,,,,,,,,,,,,,,,,,,,,,,,,,,,,,,,,,,,,,,,,,,,,,,,,,,,,,,,,,,,,,,,,,,,,,,,,,,,,,,,,,,,,,,,,,,,,,,,,,,,,,,,,,447.8924058000557,448.8461269000545,1,1,0.3713164000073448,447.8924058000557,448.8461269000545,448.8371143999975,None,,,,,,,,,,,,,,,,,,,,,,,,,,,,,,,1102_t2,002,2,1,2022_Mar_16_1625,task_complete_blocked_LC_updated,2021.2.3,238.8932553537909,
,,,O,2,,,,,,,,,,,19,1,39,1,,,,,,,,,,,,,,,,,,,,,,,,,,,,,,,,,,,,,,,,,,,,,,,,,,,,,,,,,,,,,,,,,,,,,,,,,,,,,,,,,,,,,,,,,,,,,,,,,,,,,,,,,,,448.89083010004833,449.8444080000045,2,1,0.33679640002083033,448.89083010004833,449.8444080000045,449.8348447000608,448.89083010004833,,,,,,,,,,,,,,,,,,,,,,,,,,,,,,,1102_t2,002,2,1,2022_Mar_16_1625,task_complete_blocked_LC_updated,2021.2.3,238.8932553537909,
,,,O,2,,,,,,,,,,,20,0,40,1,,,,,,,,,,,,,,,,,,,,,,,,,,,,,,,,,,,,,,,,,,,,,,,,,,,,,,,,,,,,,,,,,,,,,,,,,,,,,,,,,,,,,,,,,,,,,,,,,,,,,,,,,,,449.8974623000249,450.85107800003607,2,1,0.5154923000372946,449.8974623000249,450.85107800003607,450.84111709997524,449.8974623000249,,,,,,,,,,,,,,,,,,,,,,,,,,,,,,,1102_t2,002,2,1,2022_Mar_16_1625,task_complete_blocked_LC_updated,2021.2.3,238.8932553537909,
,,,X,1,,,,,,,,,,,20,1,41,0,,,,,,,,,,,,,,,,,,,,,,,,,,,,,,,,,,,,,,,,,,,,,,,,,,,,,,,,,,,,,,,,,,,,,,,,,,,,,,,,,,,,,,,,,,,,,,,,,,,,,,,,,,,450.89288719999604,451.84220660000574,1,1,0.3739114999771118,450.89288719999604,451.84220660000574,451.83815520000644,None,,,,,,,,,,,,,,,,,,,,,,,,,,,,,,,1102_t2,002,2,1,2022_Mar_16_1625,task_complete_blocked_LC_updated,2021.2.3,238.8932553537909,
,,,X,1,,,,,,,,,,,21,0,42,0,,,,,,,,,,,,,,,,,,,,,,,,,,,,,,,,,,,,,,,,,,,,,,,,,,,,,,,,,,,,,,,,,,,,,,,,,,,,,,,,,,,,,,,,,,,,,,,,,,,,,,,,,,,451.8895506999688,452.84226399997715,1,1,0.3782037999480963,451.8895506999688,452.84226399997715,452.8385540000163,451.8895506999688,,,,,,,,,,,,,,,,,,,,,,,,,,,,,,,1102_t2,002,2,1,2022_Mar_16_1625,task_complete_blocked_LC_updated,2021.2.3,238.8932553537909,
,,,O,2,,,,,,,,,,,21,1,43,1,,,,,,,,,,,,,,,,,,,,,,,,,,,,,,,,,,,,,,,,,,,,,,,,,,,,,,,,,,,,,,,,,,,,,,,,,,,,,,,,,,,,,,,,,,,,,,,,,,,,,,,,,,,452.89072090003174,453.8419038000284,2,1,0.41936629998963326,452.89072090003174,453.8419038000284,453.8380655000219,452.89072090003174,,,,,,,,,,,,,,,,,,,,,,,,,,,,,,,1102_t2,002,2,1,2022_Mar_16_1625,task_complete_blocked_LC_updated,2021.2.3,238.8932553537909,
,,,O,2,,,,,,,,,,,22,0,44,1,,,,,,,,,,,,,,,,,,,,,,,,,,,,,,,,,,,,,,,,,,,,,,,,,,,,,,,,,,,,,,,,,,,,,,,,,,,,,,,,,,,,,,,,,,,,,,,,,,,,,,,,,,,453.8906920000445,454.8437608999666,2,1,0.470070100040175,453.8906920000445,454.8437608999666,454.8411514000036,453.8906920000445,,,,,,,,,,,,,,,,,,,,,,,,,,,,,,,1102_t2,002,2,1,2022_Mar_16_1625,task_complete_blocked_LC_updated,2021.2.3,238.8932553537909,
,,,X,1,,,,,,,,,,,22,1,45,0,,,,,,,,,,,,,,,,,,,,,,,,,,,,,,,,,,,,,,,,,,,,,,,,,,,,,,,,,,,,,,,,,,,,,,,,,,,,,,,,,,,,,,,,,,,,,,,,,,,,,,,,,,,454.8929509000154,455.8452282999642,1,1,0.39595239993650466,454.8929509000154,455.8452282999642,455.84167750005145,None,,,,,,,,,,,,,,,,,,,,,,,,,,,,,,,1102_t2,002,2,1,2022_Mar_16_1625,task_complete_blocked_LC_updated,2021.2.3,238.8932553537909,
,,,X,1,,,,,,,,,,,23,0,46,0,,,,,,,,,,,,,,,,,,,,,,,,,,,,,,,,,,,,,,,,,,,,,,,,,,,,,,,,,,,,,,,,,,,,,,,,,,,,,,,,,,,,,,,,,,,,,,,,,,,,,,,,,,,455.8969349999679,456.85170290002134,1,1,0.3626795000163838,455.8969349999679,456.85170290002134,456.8411003999645,None,,,,,,,,,,,,,,,,,,,,,,,,,,,,,,,1102_t2,002,2,1,2022_Mar_16_1625,task_complete_blocked_LC_updated,2021.2.3,238.8932553537909,
,,,O,2,,,,,,,,,,,23,1,47,1,,,,,,,,,,,,,,,,,,,,,,,,,,,,,,,,,,,,,,,,,,,,,,,,,,,,,,,,,,,,,,,,,,,,,,,,,,,,,,,,,,,,,,,,,,,,,,,,,,,,,,,,,,,456.89232680003624,457.84281719999854,2,1,0.3744247000431642,456.89232680003624,457.84281719999854,457.8394507999765,None,,,,,,,,,,,,,,,,,,,,,,,,,,,,,,,1102_t2,002,2,1,2022_Mar_16_1625,task_complete_blocked_LC_updated,2021.2.3,238.8932553537909,
,,,O,2,,,,,,,,,,,24,0,48,1,,,,,,,,,,,,,,,,,,,,,,,,,,,,,,,,,,,,,,,,,,,,,,,,,,,,,,,,,,,,,,,,,,,,,,,,,,,,,,,,,,,,,,,,,,,,,,,,,,,,,,,,,,,457.89051209995523,458.84267260006163,2,1,0.36165750003419816,457.89051209995523,458.84267260006163,458.83956160000525,457.89051209995523,,,,,,,,,,,,,,,,,,,,,,,,,,,,,,,1102_t2,002,2,1,2022_Mar_16_1625,task_complete_blocked_LC_updated,2021.2.3,238.8932553537909,
,,,X,1,,,,,,,,,,,24,1,49,0,,,,,,,,,,,,,,,,,,,,,,,,,,,,,,,,,,,,,,,,,,,,,,,,,,,,,,,,,,,,,,,,,,,,,,,,,,,,,,,,,,,,,,,,,,,,,,,,,,,,,,,,,,,458.8923613000661,459.84466040006373,1,1,0.5057653000112623,458.8923613000661,459.84466040006373,459.84119860001374,458.8923613000661,,,,,,,,,,,,,,,,,,,,,,,,,,,,,,,1102_t2,002,2,1,2022_Mar_16_1625,task_complete_blocked_LC_updated,2021.2.3,238.8932553537909,
,,,O,2,,,,,,,,,,,25,0,50,1,,,,,,,,,,,,,,,,,,,,,,,,,,,,,,,,,,,,,,,,,,,,,,,,,,,,,,,,,,,,,,,,,,,,,,,,,,,,,,,,,,,,,,,,,,,,,,,,,,,,,,,,,,,459.89276580000296,460.84317710006144,2,1,0.4167034999700263,459.89276580000296,460.84317710006144,460.8401433000108,None,,,,,,,,,,,,,,,,,,,,,,,,,,,,,,,1102_t2,002,2,1,2022_Mar_16_1625,task_complete_blocked_LC_updated,2021.2.3,238.8932553537909,
,,,X,1,,,,,,,,,,,25,1,51,0,,,,,,,,,,,,,,,,,,,,,,,,,,,,,,,,,,,,,,,,,,,,,,,,,,,,,,,,,,,,,,,,,,,,,,,,,,,,,,,,,,,,,,,,,,,,,,,,,,,,,,,,,,,460.8930914000375,461.84616610000376,1,1,0.4928624000167474,460.8930914000375,461.84616610000376,461.842556699994,None,,,,,,,,,,,,,,,,,,,,,,,,,,,,,,,1102_t2,002,2,1,2022_Mar_16_1625,task_complete_blocked_LC_updated,2021.2.3,238.8932553537909,
,,,O,2,,,,,,,,,,,26,0,52,1,,,,,,,,,,,,,,,,,,,,,,,,,,,,,,,,,,,,,,,,,,,,,,,,,,,,,,,,,,,,,,,,,,,,,,,,,,,,,,,,,,,,,,,,,,,,,,,,,,,,,,,,,,,461.8929628999904,462.84779140003957,None,0,,461.8929628999904,462.84779140003957,462.84453919995576,None,,,,,,,,,,,,,,,,,,,,,,,,,,,,,,,1102_t2,002,2,1,2022_Mar_16_1625,task_complete_blocked_LC_updated,2021.2.3,238.8932553537909,
,,,X,1,,,,,,,,,,,26,1,53,0,,,,,,,,,,,,,,,,,,,,,,,,,,,,,,,,,,,,,,,,,,,,,,,,,,,,,,,,,,,,,,,,,,,,,,,,,,,,,,,,,,,,,,,,,,,,,,,,,,,,,,,,,,,462.897462700028,463.8463627999881,1,1,0.5145851999986917,462.897462700028,463.8463627999881,463.8463627999881,None,,,,,,,,,,,,,,,,,,,,,,,,,,,,,,,1102_t2,002,2,1,2022_Mar_16_1625,task_complete_blocked_LC_updated,2021.2.3,238.8932553537909,
,,,O,2,,,,,,,,,,,27,0,54,1,,,,,,,,,,,,,,,,,,,,,,,,,,,,,,,,,,,,,,,,,,,,,,,,,,,,,,,,,,,,,,,,,,,,,,,,,,,,,,,,,,,,,,,,,,,,,,,,,,,,,,,,,,,463.89386640000157,464.84936860005837,2,1,0.37557499995455146,463.89386640000157,464.84936860005837,464.84936860005837,None,,,,,,,,,,,,,,,,,,,,,,,,,,,,,,,1102_t2,002,2,1,2022_Mar_16_1625,task_complete_blocked_LC_updated,2021.2.3,238.8932553537909,
,,,X,1,,,,,,,,,,,27,1,55,0,,,,,,,,,,,,,,,,,,,,,,,,,,,,,,,,,,,,,,,,,,,,,,,,,,,,,,,,,,,,,,,,,,,,,,,,,,,,,,,,,,,,,,,,,,,,,,,,,,,,,,,,,,,464.90029220003635,465.85139169998,1,1,0.5184712000191212,464.90029220003635,465.85139169998,465.84848459996283,None,,,,,,,,,,,,,,,,,,,,,,,,,,,,,,,1102_t2,002,2,1,2022_Mar_16_1625,task_complete_blocked_LC_updated,2021.2.3,238.8932553537909,
,,,X,1,,,,,,,,,,,28,0,56,0,,,,,,,,,,,,,,,,,,,,,,,,,,,,,,,,,,,,,,,,,,,,,,,,,,,,,,,,,,,,,,,,,,,,,,,,,,,,,,,,,,,,,,,,,,,,,,,,,,,,,,,,,,,465.89683019998483,466.84451389999595,None,0,,465.89683019998483,466.84451389999595,466.84169579995796,None,,,,,,,,,,,,,,,,,,,,,,,,,,,,,,,1102_t2,002,2,1,2022_Mar_16_1625,task_complete_blocked_LC_updated,2021.2.3,238.8932553537909,
,,,O,2,,,,,,,,,,,28,1,57,1,,,,,,,,,,,,,,,,,,,,,,,,,,,,,,,,,,,,,,,,,,,,,,,,,,,,,,,,,,,,,,,,,,,,,,,,,,,,,,,,,,,,,,,,,,,,,,,,,,,,,,,,,,,466.89286030002404,467.8452493000077,2,1,0.5917590000899509,466.89286030002404,467.8452493000077,467.84256520005874,None,,,,,,,,,,,,,,,,,,,,,,,,,,,,,,,1102_t2,002,2,1,2022_Mar_16_1625,task_complete_blocked_LC_updated,2021.2.3,238.8932553537909,
,,,O,2,,,,,,,,,,,29,0,58,1,,,,,,,,,,,,,,,,,,,,,,,,,,,,,,,,,,,,,,,,,,,,,,,,,,,,,,,,,,,,,,,,,,,,,,,,,,,,,,,,,,,,,,,,,,,,,,,,,,,,,,,,,,,467.89286180003546,468.84367279999424,2,1,0.4790138000389561,467.89286180003546,468.84367279999424,468.83904990006704,None,,,,,,,,,,,,,,,,,,,,,,,,,,,,,,,1102_t2,002,2,1,2022_Mar_16_1625,task_complete_blocked_LC_updated,2021.2.3,238.8932553537909,
,,,X,1,,,,,,,,,,,29,1,59,0,,,,,,,,,,,,,,,,,,,,,,,,,,,,,,,,,,,,,,,,,,,,,,,,,,,,,,,,,,,,,,,,,,,,,,,,,,,,,,,,,,,,,,,,,,,,,,,,,,,,,,,,,,,468.89319299999624,469.8463591999607,1,1,0.5343308999435976,468.89319299999624,469.8463591999607,469.84236530005,None,,,,,,,,,,,,,,,,,,,,,,,,,,,,,,,1102_t2,002,2,1,2022_Mar_16_1625,task_complete_blocked_LC_updated,2021.2.3,238.8932553537909,
,,,,,,,,,,,,,,,,,,,,,,,,,,,,,,,,,,,,,,,,,,,,,,,,,,,,,,,,,,,,,,,,,,,,,,,,,,,,,,,,,,,,,,,,,,,,,,,,,,,,,,,,,,,,,,,,,,,,,,,,,,,,,,,,,,,,,,469.8919653999619,None,space,26.150336500024423,474.89419450005516,None,,,,,,,,,,,,,,,,,,,,,,,,,1102_t2,002,2,1,2022_Mar_16_1625,task_complete_blocked_LC_updated,2021.2.3,238.8932553537909,
,,,,,,,,,,,,,,,,,,,,,,,,,,,,,,,,,,,,,,,,,,,,,,,,,,,,,,,,,,,,,,,,,,,,,,,,,,,,,,,,,,,,,,,,,,,,,,,501.05360490002204,None,5,12.87435259995982,501.05360490002204,None,,,,,,,,,,,,,,,,,,,,,,,,,,,,,,,,,,,,,,,,474.89419450005516,None,,,,,,,,,,,,,,,,,,,,,,,1102_t2,002,2,1,2022_Mar_16_1625,task_complete_blocked_LC_updated,2021.2.3,238.8932553537909,
stimulus_images/A_coin.jpg,TIME,0,,,,,,,,,,,,,,,,,0,0,0,0,,,,,,,,,,,,,,,,,,,,,,,,,,,,,,,,,,,,,,,,,,,,,,,,,,,,,,,,,,,,,,,,,,,,,,,,,,,,,,,2.500019036233425e-06,513.9507760000415,515.9571607999969,513.9507760000415,515.9571607999969,514.9465339999879,515.9528951999964,514.9465339999879,515.9528951999964,515.9440841999603,None,5.992437000037171,519.9379239999689,None,519.9379239999689,None,3,0.46856549999210984,519.9379239999689,None,525.9390642000362,None,,,,,,,,,,,,,,,,,,,,,,,,,,,,,,,,,,,,,,,,,,1102_t2,002,2,1,2022_Mar_16_1625,task_complete_blocked_LC_updated,2021.2.3,238.8932553537909,
stimulus_images/AARCCHAR2.jpg,TIME,0,,,,,,,,,,,,,,,,,0,1,1,3,,,,,,,,,,,,,,,,,,,,,,,,,,,,,,,,,,,,,,,,,,,,,,,,,,,,,,,,,,,,,,,,,,,,,,,,,,,,,,,12.995390400057659,526.9495003999909,528.9528698000358,526.9495003999909,528.9528698000358,527.9554457999766,528.9559161000652,527.9554457999766,528.9559161000652,528.9483579000225,None,18.996508299955167,532.9422558000078,None,532.9422558000078,None,3,0.34102990000974387,532.9422558000078,None,538.9440065999515,None,,,,,,,,,,,,,,,,,,,,,,,,,,,,,,,,,,,,,,,,,,1102_t2,002,2,1,2022_Mar_16_1625,task_complete_blocked_LC_updated,2021.2.3,238.8932553537909,
stimulus_images/ABALLBEAR.jpg,TIME,0,,,,,,,,,,,,,,,,,0,2,2,4,,,,,,,,,,,,,,,,,,,,,,,,,,,,,,,,,,,,,,,,,,,,,,,,,,,,,,,,,,,,,,,,,,,,,,,,,,,,,,,27.00239599996712,540.9585147000616,542.9592328000581,540.9585147000616,542.9592328000581,541.9565124000655,542.9561692000134,541.9565124000655,542.9561692000134,542.9561692000134,None,33.004866100032814,546.9508658000268,None,546.9508658000268,None,4,0.5734170000068843,546.9508658000268,None,552.9527434000047,None,,,,,,,,,,,,,,,,,,,,,,,,,,,,,,,,,,,,,,,,,,1102_t2,002,2,1,2022_Mar_16_1625,task_complete_blocked_LC_updated,2021.2.3,238.8932553537909,
stimulus_images/ADRYWOOD.jpg,TIME,0,,,,,,,,,,,,,,,,,0,3,3,9,,,,,,,,,,,,,,,,,,,,,,,,,,,,,,,,,,,,,,,,,,,,,,,,,,,,,,,,,,,,,,,,,,,,,,,,,,,,,,,41.010929799987935,554.9673393999692,556.9680536000524,554.9673393999692,556.9680536000524,555.9627720999997,556.9635152999545,555.9627720999997,556.9635152999545,556.9635152999545,None,47.01357619999908,560.959725099965,None,560.959725099965,None,2,0.41237319994252175,560.959725099965,None,566.9586433999939,None,,,,,,,,,,,,,,,,,,,,,,,,,,,,,,,,,,,,,,,,,,1102_t2,002,2,1,2022_Mar_16_1625,task_complete_blocked_LC_updated,2021.2.3,238.8932553537909,
stimulus_images/A56THUND4.jpg,TIME,0,,,,,,,,,,,,,,,,,0,4,4,1,,,,,,,,,,,,,,,,,,,,,,,,,,,,,,,,,,,,,,,,,,,,,,,,,,,,,,,,,,,,,,,,,,,,,,,,,,,,,,,55.015046900021844,568.9715505000204,570.9721929000225,568.9715505000204,570.9721929000225,569.9641459999839,570.9654318999965,569.9641459999839,570.9654318999965,570.9654318999965,None,61.01750740001444,574.9632089000661,None,574.9632089000661,None,2,2.266160500003025,574.9632089000661,None,580.9653038999531,None,,,,,,,,,,,,,,,,,,,,,,,,,,,,,,,,,,,,,,,,,,1102_t2,002,2,1,2022_Mar_16_1625,task_complete_blocked_LC_updated,2021.2.3,238.8932553537909,
stimulus_images/Aammonitefo14.jpg,TIME,1,,,,,,,,,,,,,,,,,0,5,5,2,,,,,,,,,,,,,,,,,,,,,,,,,,,,,,,,,,,,,,,,,,,,,,,,,,,,,,,,,,,,,,,,,,,,,,,,,,,,,,,69.02181389997713,582.9733159999596,584.9738752000267,582.9733159999596,584.9738752000267,583.9675324000418,584.9706220000517,583.9675324000418,584.9706220000517,584.9706220000517,None,75.02591369999573,588.9715695000486,None,588.9715695000486,None,4,0.5516775000141934,588.9715695000486,None,594.9709502999904,None,,,,,,,,,,,,,,,,,,,,,,,,,,,,,,,,,,,,,,,,,,1102_t2,002,2,1,2022_Mar_16_1625,task_complete_blocked_LC_updated,2021.2.3,238.8932553537909,
stimulus_images/ACANDLE30.jpg,TIME,0,,,,,,,,,,,,,,,,,0,6,6,7,,,,,,,,,,,,,,,,,,,,,,,,,,,,,,,,,,,,,,,,,,,,,,,,,,,,,,,,,,,,,,,,,,,,,,,,,,,,,,,83.0271064999979,596.982662800001,598.9807046999922,596.982662800001,598.9807046999922,597.980303099961,598.9807046999922,597.980303099961,598.9807046999922,598.9775781000499,None,89.03029619995505,602.9761136999587,None,602.9761136999587,None,4,0.7781763999955729,602.9761136999587,None,608.9738035000628,None,,,,,,,,,,,,,,,,,,,,,,,,,,,,,,,,,,,,,,,,,,1102_t2,002,2,1,2022_Mar_16_1625,task_complete_blocked_LC_updated,2021.2.3,238.8932553537909,
stimulus_images/Abeaver.jpg,TIME,0,,,,,,,,,,,,,,,,,0,7,7,5,,,,,,,,,,,,,,,,,,,,,,,,,,,,,,,,,,,,,,,,,,,,,,,,,,,,,,,,,,,,,,,,,,,,,,,,,,,,,,,98.03174800006673,611.9812126000179,613.9808610000182,611.9812126000179,613.9808610000182,612.9727548999945,613.9731528999982,612.9727548999945,613.9731528999982,613.9731528999982,None,104.03199090005364,617.9774578000652,None,617.9774578000652,None,3,0.3731045000022277,617.9774578000652,None,623.9904095999664,None,,,,,,,,,,,,,,,,,,,,,,,,,,,,,,,,,,,,,,,,,,1102_t2,002,2,1,2022_Mar_16_1625,task_complete_blocked_LC_updated,2021.2.3,238.8932553537909,
stimulus_images/Abottleofbat2.jpg,TIME,1,,,,,,,,,,,,,,,,,0,8,8,6,,,,,,,,,,,,,,,,,,,,,,,,,,,,,,,,,,,,,,,,,,,,,,,,,,,,,,,,,,,,,,,,,,,,,,,,,,,,,,,112.04826029995456,625.9970291999634,627.9997757000383,625.9970291999634,627.9997757000383,626.9940514999907,627.9997757000383,626.9940514999907,627.9997757000383,627.9969921000302,None,118.05148300004657,631.9980366000673,None,631.9980366000673,None,4,0.7327142000431195,631.9980366000673,None,638.0012027999619,None,,,,,,,,,,,,,,,,,,,,,,,,,,,,,,,,,,,,,,,,,,1102_t2,002,2,1,2022_Mar_16_1625,task_complete_blocked_LC_updated,2021.2.3,238.8932553537909,
stimulus_images/Acocktailumb4.jpg,TIME,0,,,,,,,,,,,,,,,,,0,9,9,8,,,,,,,,,,,,,,,,,,,,,,,,,,,,,,,,,,,,,,,,,,,,,,,,,,,,,,,,,,,,,,,,,,,,,,,,,,,,,,,125.05709670006763,639.0062931999564,641.0073758000508,639.0062931999564,641.0073758000508,640.0013987000566,641.0042363000102,640.0013987000566,641.0042363000102,641.0001415000297,None,131.05616419995204,645.0013948000269,None,645.0013948000269,None,1,1.9068322000093758,645.0013948000269,None,651.0016939999769,None,,,,,,,,,,,,,,,,,,,,,,,,,,,,,,,,,,,,,,,,,,1102_t2,002,2,1,2022_Mar_16_1625,task_complete_blocked_LC_updated,2021.2.3,238.8932553537909,
stimulus_images/AABSTRACT.jpg,TIME,1,,,,,,,,,,,,,,,,,,,,,0,0,0,8,,,,,,,,,,,,,,,,,,,,,,,,,,,,,,,,,,,,,,,,,,,,,,,,,,,,,,,,,,,,,,,,,,,,,,,,,,,140.06352470000274,654.0189251999836,656.0205567000667,654.0189251999836,656.0205567000667,655.015079600038,656.0173763000639,655.015079600038,656.0173763000639,656.0134441000409,None,146.0598768000491,660.0065979000647,None,660.0065979000647,None,2,0.8137084000045434,660.0065979000647,None,666.0052405999741,None,,,,,,,,,,,,,,,,,,,,,,,,,,,,,,,,,,,,,,,,,,1102_t2,002,2,1,2022_Mar_16_1625,task_complete_blocked_LC_updated,2021.2.3,238.8932553537909,
stimulus_images/weddingdress.jpg,TIME,0,,,,,,,,,,,,,,,,,,,,,0,1,1,6,,,,,,,,,,,,,,,,,,,,,,,,,,,,,,,,,,,,,,,,,,,,,,,,,,,,,,,,,,,,,,,,,,,,,,,,,,,153.06186100002378,667.0186197999865,669.0181728999596,667.0186197999865,669.0181728999596,668.0142825000221,669.0147005000617,668.0142825000221,669.0147005000617,669.0147005000617,None,159.06430660001934,673.0098053000402,None,673.0098053000402,None,4,0.8127891999902204,673.0098053000402,None,679.0111985000549,None,,,,,,,,,,,,,,,,,,,,,,,,,,,,,,,,,,,,,,,,,,1102_t2,002,2,1,2022_Mar_16_1625,task_complete_blocked_LC_updated,2021.2.3,238.8932553537909,
stimulus_images/Astereo30.jpg,TIME,1,,,,,,,,,,,,,,,,,,,,,0,2,2,4,,,,,,,,,,,,,,,,,,,,,,,,,,,,,,,,,,,,,,,,,,,,,,,,,,,,,,,,,,,,,,,,,,,,,,,,,,,168.06959019997157,682.0253616999835,684.0286490999861,682.0253616999835,684.0286490999861,683.02402110002,684.0286490999861,683.02402110002,684.0286490999861,684.0286490999861,None,174.0722879000241,688.0181763999863,None,688.0181763999863,None,None,,688.0181763999863,None,694.017480700044,None,,,,,,,,,,,,,,,,,,,,,,,,,,,,,,,,,,,,,,,,,,1102_t2,002,2,1,2022_Mar_16_1625,task_complete_blocked_LC_updated,2021.2.3,238.8932553537909,
stimulus_images/AHIGCHAIR.jpg,TIME,0,,,,,,,,,,,,,,,,,,,,,0,3,3,1,,,,,,,,,,,,,,,,,,,,,,,,,,,,,,,,,,,,,,,,,,,,,,,,,,,,,,,,,,,,,,,,,,,,,,,,,,,182.07375740003772,696.0300307000289,698.0311084999703,696.0300307000289,698.0311084999703,697.0265186000615,698.0282597000478,697.0265186000615,698.0282597000478,698.0282597000478,None,188.07642860000487,702.0221911000554,None,702.0221911000554,None,3,0.47441420005634427,702.0221911000554,None,708.0208339999663,None,,,,,,,,,,,,,,,,,,,,,,,,,,,,,,,,,,,,,,,,,,1102_t2,002,2,1,2022_Mar_16_1625,task_complete_blocked_LC_updated,2021.2.3,238.8932553537909,
stimulus_images/Aribbon21.jpg,TIME,0,,,,,,,,,,,,,,,,,,,,,0,4,4,3,,,,,,,,,,,,,,,,,,,,,,,,,,,,,,,,,,,,,,,,,,,,,,,,,,,,,,,,,,,,,,,,,,,,,,,,,,,195.07826560002286,709.0273785999743,711.0292949000141,709.0273785999743,711.0292949000141,710.0224547999678,711.0245126000373,710.0224547999678,711.0245126000373,711.020582200028,None,201.07700930000283,715.0230998999905,None,715.0230998999905,None,4,0.5372529999585822,715.0230998999905,None,721.0244160000002,None,,,,,,,,,,,,,,,,,,,,,,,,,,,,,,,,,,,,,,,,,,1102_t2,002,2,1,2022_Mar_16_1625,task_complete_blocked_LC_updated,2021.2.3,238.8932553537909,
stimulus_images/Aancientston3.jpg,TIME,0,,,,,,,,,,,,,,,,,,,,,0,5,5,9,,,,,,,,,,,,,,,,,,,,,,,,,,,,,,,,,,,,,,,,,,,,,,,,,,,,,,,,,,,,,,,,,,,,,,,,,,,210.08242800005246,724.0312324999832,726.0315866000019,724.0312324999832,726.0315866000019,725.0278397999937,726.028315100004,725.0278397999937,726.028315100004,726.028315100004,None,216.08602250006516,730.0320689000655,None,730.0320689000655,None,1,0.4291754000587389,730.0320689000655,None,736.0293218999868,None,,,,,,,,,,,,,,,,,,,,,,,,,,,,,,,,,,,,,,,,,,1102_t2,002,2,1,2022_Mar_16_1625,task_complete_blocked_LC_updated,2021.2.3,238.8932553537909,
stimulus_images/A_flower.jpg,TIME,0,,,,,,,,,,,,,,,,,,,,,0,6,6,7,,,,,,,,,,,,,,,,,,,,,,,,,,,,,,,,,,,,,,,,,,,,,,,,,,,,,,,,,,,,,,,,,,,,,,,,,,,223.0861401000293,737.0354583000299,739.0357069000602,737.0354583000299,739.0357069000602,738.0308278000448,739.0310430000536,738.0308278000448,739.0310430000536,739.0310430000536,None,229.08671950001735,743.0320742999902,None,743.0320742999902,None,3,0.9129487000172958,743.0320742999902,None,749.0388507000171,None,,,,,,,,,,,,,,,,,,,,,,,,,,,,,,,,,,,,,,,,,,1102_t2,002,2,1,2022_Mar_16_1625,task_complete_blocked_LC_updated,2021.2.3,238.8932553537909,
stimulus_images/AGLASSFL4.jpg,TIME,1,,,,,,,,,,,,,,,,,,,,,0,7,7,0,,,,,,,,,,,,,,,,,,,,,,,,,,,,,,,,,,,,,,,,,,,,,,,,,,,,,,,,,,,,,,,,,,,,,,,,,,,238.09625669999514,752.0524792000651,754.0590848999564,752.0524792000651,754.0590848999564,753.0490466000047,754.0539630999556,753.0490466000047,754.0539630999556,754.0539630999556,None,244.09763780003414,758.043309199973,None,758.043309199973,None,3,0.8837008000118658,758.043309199973,None,764.0455727999797,None,,,,,,,,,,,,,,,,,,,,,,,,,,,,,,,,,,,,,,,,,,1102_t2,002,2,1,2022_Mar_16_1625,task_complete_blocked_LC_updated,2021.2.3,238.8932553537909,
stimulus_images/beanbagchair.jpg,TIME,0,,,,,,,,,,,,,,,,,,,,,0,8,8,5,,,,,,,,,,,,,,,,,,,,,,,,,,,,,,,,,,,,,,,,,,,,,,,,,,,,,,,,,,,,,,,,,,,,,,,,,,,251.10291879996657,765.0653959000483,767.0646156000439,765.0653959000483,767.0646156000439,766.0610636000056,767.0617489999859,766.0610636000056,767.0617489999859,767.0571963000111,None,257.10676250001416,771.0531757000135,None,771.0531757000135,None,4,0.5431007000152022,771.0531757000135,None,777.050279899966,None,,,,,,,,,,,,,,,,,,,,,,,,,,,,,,,,,,,,,,,,,,1102_t2,002,2,1,2022_Mar_16_1625,task_complete_blocked_LC_updated,2021.2.3,238.8932553537909,
stimulus_images/AMUSISTA2.jpg,TIME,0,,,,,,,,,,,,,,,,,,,,,0,9,9,2,,,,,,,,,,,,,,,,,,,,,,,,,,,,,,,,,,,,,,,,,,,,,,,,,,,,,,,,,,,,,,,,,,,,,,,,,,,265.1077720000176,779.0638365000486,781.0709559000097,779.0638365000486,781.0709559000097,780.0604388000211,781.0646402999992,780.0604388000211,781.0646402999992,781.0646402999992,None,271.1101579000242,785.056953900028,None,785.056953900028,None,2,0.7168005000567064,785.056953900028,None,791.0586276999675,None,,,,,,,,,,,,,,,,,,,,,,,,,,,,,,,,,,,,,,,,,,1102_t2,002,2,1,2022_Mar_16_1625,task_complete_blocked_LC_updated,2021.2.3,238.8932553537909,
,,,X,1,,,,,,,,,,,,,,,,,,,,,,,0,0,0,0,,,,,,,,,,,,,,,,,,,,,,,,,,,,,,,,,,,,,,,,,,,,,,,,,,,,,,,,,,,,,,,,,,,,,,,,,,,,,,,,,,,,,,,,,,,,,794.0614853999577,None,797.0716958000557,798.022658300004,1,1,0.6134413999971002,797.0716958000557,798.022658300004,798.014945999952,None,,,,,,,,,,,,,,,,,,,,,,,,,,,,,,,1102_t2,002,2,1,2022_Mar_16_1625,task_complete_blocked_LC_updated,2021.2.3,238.8932553537909,
,,,O,2,,,,,,,,,,,,,,,,,,,,,,,0,1,1,1,,,,,,,,,,,,,,,,,,,,,,,,,,,,,,,,,,,,,,,,,,,,,,,,,,,,,,,,,,,,,,,,,,,,,,,,,,,,,,,,,,,,,,,,,,,,,,,798.0652940999717,799.0192234000424,2,1,0.2976770999375731,798.0652940999717,799.0192234000424,799.0159775000066,None,,,,,,,,,,,,,,,,,,,,,,,,,,,,,,,1102_t2,002,2,1,2022_Mar_16_1625,task_complete_blocked_LC_updated,2021.2.3,238.8932553537909,
,,,X,1,,,,,,,,,,,,,,,,,,,,,,,1,0,2,0,,,,,,,,,,,,,,,,,,,,,,,,,,,,,,,,,,,,,,,,,,,,,,,,,,,,,,,,,,,,,,,,,,,,,,,,,,,,,,,,,,,,,,,,,,,,,,,799.0654170999769,800.0156878000125,1,1,0.27960230002645403,799.0654170999769,800.0156878000125,800.0125420000404,None,,,,,,,,,,,,,,,,,,,,,,,,,,,,,,,1102_t2,002,2,1,2022_Mar_16_1625,task_complete_blocked_LC_updated,2021.2.3,238.8932553537909,
,,,O,2,,,,,,,,,,,,,,,,,,,,,,,1,1,3,1,,,,,,,,,,,,,,,,,,,,,,,,,,,,,,,,,,,,,,,,,,,,,,,,,,,,,,,,,,,,,,,,,,,,,,,,,,,,,,,,,,,,,,,,,,,,,,,800.0650795999682,801.0143173000542,2,1,0.2989102000137791,800.0650795999682,801.0143173000542,801.0116129000671,None,,,,,,,,,,,,,,,,,,,,,,,,,,,,,,,1102_t2,002,2,1,2022_Mar_16_1625,task_complete_blocked_LC_updated,2021.2.3,238.8932553537909,
,,,O,2,,,,,,,,,,,,,,,,,,,,,,,2,0,4,1,,,,,,,,,,,,,,,,,,,,,,,,,,,,,,,,,,,,,,,,,,,,,,,,,,,,,,,,,,,,,,,,,,,,,,,,,,,,,,,,,,,,,,,,,,,,,,,801.0628769999603,802.0112613999518,2,1,0.6312725999159738,801.0628769999603,802.0112613999518,802.0112613999518,801.0628769999603,,,,,,,,,,,,,,,,,,,,,,,,,,,,,,,1102_t2,002,2,1,2022_Mar_16_1625,task_complete_blocked_LC_updated,2021.2.3,238.8932553537909,
,,,X,1,,,,,,,,,,,,,,,,,,,,,,,2,1,5,0,,,,,,,,,,,,,,,,,,,,,,,,,,,,,,,,,,,,,,,,,,,,,,,,,,,,,,,,,,,,,,,,,,,,,,,,,,,,,,,,,,,,,,,,,,,,,,,802.0625322000124,803.0105333999963,1,1,0.3169190000044182,802.0625322000124,803.0105333999963,803.0105333999963,802.0625322000124,,,,,,,,,,,,,,,,,,,,,,,,,,,,,,,1102_t2,002,2,1,2022_Mar_16_1625,task_complete_blocked_LC_updated,2021.2.3,238.8932553537909,
,,,X,1,,,,,,,,,,,,,,,,,,,,,,,3,0,6,0,,,,,,,,,,,,,,,,,,,,,,,,,,,,,,,,,,,,,,,,,,,,,,,,,,,,,,,,,,,,,,,,,,,,,,,,,,,,,,,,,,,,,,,,,,,,,,,803.0633240999887,804.0154250999913,1,1,0.26087879994884133,803.0633240999887,804.0154250999913,804.0119809999596,803.0633240999887,,,,,,,,,,,,,,,,,,,,,,,,,,,,,,,1102_t2,002,2,1,2022_Mar_16_1625,task_complete_blocked_LC_updated,2021.2.3,238.8932553537909,
,,,O,2,,,,,,,,,,,,,,,,,,,,,,,3,1,7,1,,,,,,,,,,,,,,,,,,,,,,,,,,,,,,,,,,,,,,,,,,,,,,,,,,,,,,,,,,,,,,,,,,,,,,,,,,,,,,,,,,,,,,,,,,,,,,,804.0664472000208,805.0178003000328,2,1,0.35054540005512536,804.0664472000208,805.0178003000328,805.0145748000359,None,,,,,,,,,,,,,,,,,,,,,,,,,,,,,,,1102_t2,002,2,1,2022_Mar_16_1625,task_complete_blocked_LC_updated,2021.2.3,238.8932553537909,
,,,O,2,,,,,,,,,,,,,,,,,,,,,,,4,0,8,1,,,,,,,,,,,,,,,,,,,,,,,,,,,,,,,,,,,,,,,,,,,,,,,,,,,,,,,,,,,,,,,,,,,,,,,,,,,,,,,,,,,,,,,,,,,,,,,805.0648237999994,806.0146667000372,2,1,0.25521020009182394,805.0648237999994,806.0146667000372,806.0122535000555,None,,,,,,,,,,,,,,,,,,,,,,,,,,,,,,,1102_t2,002,2,1,2022_Mar_16_1625,task_complete_blocked_LC_updated,2021.2.3,238.8932553537909,
,,,X,1,,,,,,,,,,,,,,,,,,,,,,,4,1,9,0,,,,,,,,,,,,,,,,,,,,,,,,,,,,,,,,,,,,,,,,,,,,,,,,,,,,,,,,,,,,,,,,,,,,,,,,,,,,,,,,,,,,,,,,,,,,,,,806.0659783000592,807.018632799969,1,1,0.2579458999680355,806.0659783000592,807.018632799969,807.0148503000382,None,,,,,,,,,,,,,,,,,,,,,,,,,,,,,,,1102_t2,002,2,1,2022_Mar_16_1625,task_complete_blocked_LC_updated,2021.2.3,238.8932553537909,
,,,X,1,,,,,,,,,,,,,,,,,,,,,,,5,0,10,0,,,,,,,,,,,,,,,,,,,,,,,,,,,,,,,,,,,,,,,,,,,,,,,,,,,,,,,,,,,,,,,,,,,,,,,,,,,,,,,,,,,,,,,,,,,,,,,807.0653336000396,808.0159735999769,1,1,0.44216970005072653,807.0653336000396,808.0159735999769,808.0126769000199,None,,,,,,,,,,,,,,,,,,,,,,,,,,,,,,,1102_t2,002,2,1,2022_Mar_16_1625,task_complete_blocked_LC_updated,2021.2.3,238.8932553537909,
,,,O,2,,,,,,,,,,,,,,,,,,,,,,,5,1,11,1,,,,,,,,,,,,,,,,,,,,,,,,,,,,,,,,,,,,,,,,,,,,,,,,,,,,,,,,,,,,,,,,,,,,,,,,,,,,,,,,,,,,,,,,,,,,,,,808.0661737000337,809.0176992999623,2,1,0.4464612000156194,808.0661737000337,809.0176992999623,809.0143994999817,None,,,,,,,,,,,,,,,,,,,,,,,,,,,,,,,1102_t2,002,2,1,2022_Mar_16_1625,task_complete_blocked_LC_updated,2021.2.3,238.8932553537909,
,,,O,2,,,,,,,,,,,,,,,,,,,,,,,6,0,12,1,,,,,,,,,,,,,,,,,,,,,,,,,,,,,,,,,,,,,,,,,,,,,,,,,,,,,,,,,,,,,,,,,,,,,,,,,,,,,,,,,,,,,,,,,,,,,,,809.0645321999909,810.021566899959,2,1,0.3925390000222251,809.0645321999909,810.021566899959,810.0154934000457,None,,,,,,,,,,,,,,,,,,,,,,,,,,,,,,,1102_t2,002,2,1,2022_Mar_16_1625,task_complete_blocked_LC_updated,2021.2.3,238.8932553537909,
,,,X,1,,,,,,,,,,,,,,,,,,,,,,,6,1,13,0,,,,,,,,,,,,,,,,,,,,,,,,,,,,,,,,,,,,,,,,,,,,,,,,,,,,,,,,,,,,,,,,,,,,,,,,,,,,,,,,,,,,,,,,,,,,,,,810.0666253999807,811.0190990000265,1,1,0.5404977999860421,810.0666253999807,811.0190990000265,811.0157902999781,None,,,,,,,,,,,,,,,,,,,,,,,,,,,,,,,1102_t2,002,2,1,2022_Mar_16_1625,task_complete_blocked_LC_updated,2021.2.3,238.8932553537909,
,,,X,1,,,,,,,,,,,,,,,,,,,,,,,7,0,14,0,,,,,,,,,,,,,,,,,,,,,,,,,,,,,,,,,,,,,,,,,,,,,,,,,,,,,,,,,,,,,,,,,,,,,,,,,,,,,,,,,,,,,,,,,,,,,,,811.0646830999758,812.0134033999639,1,1,0.5005584999453276,811.0646830999758,812.0134033999639,812.0097511999775,None,,,,,,,,,,,,,,,,,,,,,,,,,,,,,,,1102_t2,002,2,1,2022_Mar_16_1625,task_complete_blocked_LC_updated,2021.2.3,238.8932553537909,
,,,O,2,,,,,,,,,,,,,,,,,,,,,,,7,1,15,1,,,,,,,,,,,,,,,,,,,,,,,,,,,,,,,,,,,,,,,,,,,,,,,,,,,,,,,,,,,,,,,,,,,,,,,,,,,,,,,,,,,,,,,,,,,,,,,812.0631360999541,813.0123806999763,2,1,0.3972028000280261,812.0631360999541,813.0123806999763,813.009789200034,812.0631360999541,,,,,,,,,,,,,,,,,,,,,,,,,,,,,,,1102_t2,002,2,1,2022_Mar_16_1625,task_complete_blocked_LC_updated,2021.2.3,238.8932553537909,
,,,X,1,,,,,,,,,,,,,,,,,,,,,,,8,0,16,0,,,,,,,,,,,,,,,,,,,,,,,,,,,,,,,,,,,,,,,,,,,,,,,,,,,,,,,,,,,,,,,,,,,,,,,,,,,,,,,,,,,,,,,,,,,,,,,813.0623433999717,814.0150482000317,1,1,0.43111070001032203,813.0623433999717,814.0150482000317,814.0105243000435,813.0623433999717,,,,,,,,,,,,,,,,,,,,,,,,,,,,,,,1102_t2,002,2,1,2022_Mar_16_1625,task_complete_blocked_LC_updated,2021.2.3,238.8932553537909,
,,,O,2,,,,,,,,,,,,,,,,,,,,,,,8,1,17,1,,,,,,,,,,,,,,,,,,,,,,,,,,,,,,,,,,,,,,,,,,,,,,,,,,,,,,,,,,,,,,,,,,,,,,,,,,,,,,,,,,,,,,,,,,,,,,,814.0648501999676,815.0172168000136,2,1,0.36666920001152903,814.0648501999676,815.0172168000136,815.0106937000528,814.0648501999676,,,,,,,,,,,,,,,,,,,,,,,,,,,,,,,1102_t2,002,2,1,2022_Mar_16_1625,task_complete_blocked_LC_updated,2021.2.3,238.8932553537909,
,,,X,1,,,,,,,,,,,,,,,,,,,,,,,9,0,18,0,,,,,,,,,,,,,,,,,,,,,,,,,,,,,,,,,,,,,,,,,,,,,,,,,,,,,,,,,,,,,,,,,,,,,,,,,,,,,,,,,,,,,,,,,,,,,,,815.0636877999641,816.0173801999772,1,1,0.2815955999540165,815.0636877999641,816.0173801999772,816.0137973000528,815.0636877999641,,,,,,,,,,,,,,,,,,,,,,,,,,,,,,,1102_t2,002,2,1,2022_Mar_16_1625,task_complete_blocked_LC_updated,2021.2.3,238.8932553537909,
,,,O,2,,,,,,,,,,,,,,,,,,,,,,,9,1,19,1,,,,,,,,,,,,,,,,,,,,,,,,,,,,,,,,,,,,,,,,,,,,,,,,,,,,,,,,,,,,,,,,,,,,,,,,,,,,,,,,,,,,,,,,,,,,,,,816.0667239000322,817.0202741000103,2,1,0.22518179996404797,816.0667239000322,817.0202741000103,817.0113693999592,None,,,,,,,,,,,,,,,,,,,,,,,,,,,,,,,1102_t2,002,2,1,2022_Mar_16_1625,task_complete_blocked_LC_updated,2021.2.3,238.8932553537909,
,,,X,1,,,,,,,,,,,,,,,,,,,,,,,10,0,20,0,,,,,,,,,,,,,,,,,,,,,,,,,,,,,,,,,,,,,,,,,,,,,,,,,,,,,,,,,,,,,,,,,,,,,,,,,,,,,,,,,,,,,,,,,,,,,,,817.0677573999856,818.0210664999904,1,1,0.3145795000018552,817.0677573999856,818.0210664999904,818.0124865999678,817.0677573999856,,,,,,,,,,,,,,,,,,,,,,,,,,,,,,,1102_t2,002,2,1,2022_Mar_16_1625,task_complete_blocked_LC_updated,2021.2.3,238.8932553537909,
,,,O,2,,,,,,,,,,,,,,,,,,,,,,,10,1,21,1,,,,,,,,,,,,,,,,,,,,,,,,,,,,,,,,,,,,,,,,,,,,,,,,,,,,,,,,,,,,,,,,,,,,,,,,,,,,,,,,,,,,,,,,,,,,,,,818.0653394999681,819.0148606000002,2,1,0.2608606000430882,818.0653394999681,819.0148606000002,819.0106294000288,None,,,,,,,,,,,,,,,,,,,,,,,,,,,,,,,1102_t2,002,2,1,2022_Mar_16_1625,task_complete_blocked_LC_updated,2021.2.3,238.8932553537909,
,,,X,1,,,,,,,,,,,,,,,,,,,,,,,11,0,22,0,,,,,,,,,,,,,,,,,,,,,,,,,,,,,,,,,,,,,,,,,,,,,,,,,,,,,,,,,,,,,,,,,,,,,,,,,,,,,,,,,,,,,,,,,,,,,,,819.0614316000137,820.0145336999558,1,1,0.3068292998941615,819.0614316000137,820.0145336999558,820.0111088999547,819.0614316000137,,,,,,,,,,,,,,,,,,,,,,,,,,,,,,,1102_t2,002,2,1,2022_Mar_16_1625,task_complete_blocked_LC_updated,2021.2.3,238.8932553537909,
,,,O,2,,,,,,,,,,,,,,,,,,,,,,,11,1,23,1,,,,,,,,,,,,,,,,,,,,,,,,,,,,,,,,,,,,,,,,,,,,,,,,,,,,,,,,,,,,,,,,,,,,,,,,,,,,,,,,,,,,,,,,,,,,,,,820.0641135000624,821.0173008999554,2,1,0.44092409999575466,820.0641135000624,821.0173008999554,821.0080108999973,820.0641135000624,,,,,,,,,,,,,,,,,,,,,,,,,,,,,,,1102_t2,002,2,1,2022_Mar_16_1625,task_complete_blocked_LC_updated,2021.2.3,238.8932553537909,
,,,O,2,,,,,,,,,,,,,,,,,,,,,,,12,0,24,1,,,,,,,,,,,,,,,,,,,,,,,,,,,,,,,,,,,,,,,,,,,,,,,,,,,,,,,,,,,,,,,,,,,,,,,,,,,,,,,,,,,,,,,,,,,,,,,821.0624153000535,822.0165968000656,2,1,0.4692817999748513,821.0624153000535,822.0165968000656,822.0102336000418,821.0624153000535,,,,,,,,,,,,,,,,,,,,,,,,,,,,,,,1102_t2,002,2,1,2022_Mar_16_1625,task_complete_blocked_LC_updated,2021.2.3,238.8932553537909,
,,,X,1,,,,,,,,,,,,,,,,,,,,,,,12,1,25,0,,,,,,,,,,,,,,,,,,,,,,,,,,,,,,,,,,,,,,,,,,,,,,,,,,,,,,,,,,,,,,,,,,,,,,,,,,,,,,,,,,,,,,,,,,,,,,,822.0632818000158,823.0149700000184,1,1,0.2769031000789255,822.0632818000158,823.0149700000184,823.010734600015,822.0632818000158,,,,,,,,,,,,,,,,,,,,,,,,,,,,,,,1102_t2,002,2,1,2022_Mar_16_1625,task_complete_blocked_LC_updated,2021.2.3,238.8932553537909,
,,,O,2,,,,,,,,,,,,,,,,,,,,,,,13,0,26,1,,,,,,,,,,,,,,,,,,,,,,,,,,,,,,,,,,,,,,,,,,,,,,,,,,,,,,,,,,,,,,,,,,,,,,,,,,,,,,,,,,,,,,,,,,,,,,,823.0638640000252,824.0124871999724,2,1,0.5247741000493988,823.0638640000252,824.0124871999724,824.0092329999898,823.0638640000252,,,,,,,,,,,,,,,,,,,,,,,,,,,,,,,1102_t2,002,2,1,2022_Mar_16_1625,task_complete_blocked_LC_updated,2021.2.3,238.8932553537909,
,,,X,1,,,,,,,,,,,,,,,,,,,,,,,13,1,27,0,,,,,,,,,,,,,,,,,,,,,,,,,,,,,,,,,,,,,,,,,,,,,,,,,,,,,,,,,,,,,,,,,,,,,,,,,,,,,,,,,,,,,,,,,,,,,,,824.0644974999595,825.0150137000019,1,1,0.29541419993620366,824.0644974999595,825.0150137000019,825.011927900021,824.0644974999595,,,,,,,,,,,,,,,,,,,,,,,,,,,,,,,1102_t2,002,2,1,2022_Mar_16_1625,task_complete_blocked_LC_updated,2021.2.3,238.8932553537909,
,,,X,1,,,,,,,,,,,,,,,,,,,,,,,14,0,28,0,,,,,,,,,,,,,,,,,,,,,,,,,,,,,,,,,,,,,,,,,,,,,,,,,,,,,,,,,,,,,,,,,,,,,,,,,,,,,,,,,,,,,,,,,,,,,,,825.0630430000601,826.0148576999782,1,1,0.3811082999454811,825.0630430000601,826.0148576999782,826.0105436999584,825.0630430000601,,,,,,,,,,,,,,,,,,,,,,,,,,,,,,,1102_t2,002,2,1,2022_Mar_16_1625,task_complete_blocked_LC_updated,2021.2.3,238.8932553537909,
,,,O,2,,,,,,,,,,,,,,,,,,,,,,,14,1,29,1,,,,,,,,,,,,,,,,,,,,,,,,,,,,,,,,,,,,,,,,,,,,,,,,,,,,,,,,,,,,,,,,,,,,,,,,,,,,,,,,,,,,,,,,,,,,,,,826.0629837999586,827.0129813000094,2,1,0.4751623999327421,826.0629837999586,827.0129813000094,827.0095388999907,826.0629837999586,,,,,,,,,,,,,,,,,,,,,,,,,,,,,,,1102_t2,002,2,1,2022_Mar_16_1625,task_complete_blocked_LC_updated,2021.2.3,238.8932553537909,
,,,O,2,,,,,,,,,,,,,,,,,,,,,,,15,0,30,1,,,,,,,,,,,,,,,,,,,,,,,,,,,,,,,,,,,,,,,,,,,,,,,,,,,,,,,,,,,,,,,,,,,,,,,,,,,,,,,,,,,,,,,,,,,,,,,827.0623906999826,828.0160678999964,2,1,0.3565314000006765,827.0623906999826,828.0160678999964,828.0126897000009,827.0623906999826,,,,,,,,,,,,,,,,,,,,,,,,,,,,,,,1102_t2,002,2,1,2022_Mar_16_1625,task_complete_blocked_LC_updated,2021.2.3,238.8932553537909,
,,,X,1,,,,,,,,,,,,,,,,,,,,,,,15,1,31,0,,,,,,,,,,,,,,,,,,,,,,,,,,,,,,,,,,,,,,,,,,,,,,,,,,,,,,,,,,,,,,,,,,,,,,,,,,,,,,,,,,,,,,,,,,,,,,,828.0649002999999,829.0173995000077,1,1,0.5710537999402732,828.0649002999999,829.0173995000077,829.0143764000386,None,,,,,,,,,,,,,,,,,,,,,,,,,,,,,,,1102_t2,002,2,1,2022_Mar_16_1625,task_complete_blocked_LC_updated,2021.2.3,238.8932553537909,
,,,O,2,,,,,,,,,,,,,,,,,,,,,,,16,0,32,1,,,,,,,,,,,,,,,,,,,,,,,,,,,,,,,,,,,,,,,,,,,,,,,,,,,,,,,,,,,,,,,,,,,,,,,,,,,,,,,,,,,,,,,,,,,,,,,829.065352799953,830.0187920000171,2,1,0.5335345000494272,829.065352799953,830.0187920000171,830.0096760999877,None,,,,,,,,,,,,,,,,,,,,,,,,,,,,,,,1102_t2,002,2,1,2022_Mar_16_1625,task_complete_blocked_LC_updated,2021.2.3,238.8932553537909,
,,,X,1,,,,,,,,,,,,,,,,,,,,,,,16,1,33,0,,,,,,,,,,,,,,,,,,,,,,,,,,,,,,,,,,,,,,,,,,,,,,,,,,,,,,,,,,,,,,,,,,,,,,,,,,,,,,,,,,,,,,,,,,,,,,,830.0627485000296,831.0163103999803,1,1,0.39240270003210753,830.0627485000296,831.0163103999803,831.0125359999947,830.0627485000296,,,,,,,,,,,,,,,,,,,,,,,,,,,,,,,1102_t2,002,2,1,2022_Mar_16_1625,task_complete_blocked_LC_updated,2021.2.3,238.8932553537909,
,,,X,1,,,,,,,,,,,,,,,,,,,,,,,17,0,34,0,,,,,,,,,,,,,,,,,,,,,,,,,,,,,,,,,,,,,,,,,,,,,,,,,,,,,,,,,,,,,,,,,,,,,,,,,,,,,,,,,,,,,,,,,,,,,,,831.0654914999614,832.0146812000312,1,1,0.3670488999923691,831.0654914999614,832.0146812000312,832.0107432999648,None,,,,,,,,,,,,,,,,,,,,,,,,,,,,,,,1102_t2,002,2,1,2022_Mar_16_1625,task_complete_blocked_LC_updated,2021.2.3,238.8932553537909,
,,,O,2,,,,,,,,,,,,,,,,,,,,,,,17,1,35,1,,,,,,,,,,,,,,,,,,,,,,,,,,,,,,,,,,,,,,,,,,,,,,,,,,,,,,,,,,,,,,,,,,,,,,,,,,,,,,,,,,,,,,,,,,,,,,,832.0687123000389,833.0186709000263,2,1,0.3502147999824956,832.0687123000389,833.0186709000263,833.0156754000345,832.0687123000389,,,,,,,,,,,,,,,,,,,,,,,,,,,,,,,1102_t2,002,2,1,2022_Mar_16_1625,task_complete_blocked_LC_updated,2021.2.3,238.8932553537909,
,,,O,2,,,,,,,,,,,,,,,,,,,,,,,18,0,36,1,,,,,,,,,,,,,,,,,,,,,,,,,,,,,,,,,,,,,,,,,,,,,,,,,,,,,,,,,,,,,,,,,,,,,,,,,,,,,,,,,,,,,,,,,,,,,,,833.0662231000606,834.0204879000084,2,1,0.33962119999341667,833.0662231000606,834.0204879000084,834.0110515999841,None,,,,,,,,,,,,,,,,,,,,,,,,,,,,,,,1102_t2,002,2,1,2022_Mar_16_1625,task_complete_blocked_LC_updated,2021.2.3,238.8932553537909,
,,,X,1,,,,,,,,,,,,,,,,,,,,,,,18,1,37,0,,,,,,,,,,,,,,,,,,,,,,,,,,,,,,,,,,,,,,,,,,,,,,,,,,,,,,,,,,,,,,,,,,,,,,,,,,,,,,,,,,,,,,,,,,,,,,,834.0628361999989,835.0156496999552,1,1,0.4204486000817269,834.0628361999989,835.0156496999552,835.011665900005,834.0628361999989,,,,,,,,,,,,,,,,,,,,,,,,,,,,,,,1102_t2,002,2,1,2022_Mar_16_1625,task_complete_blocked_LC_updated,2021.2.3,238.8932553537909,
,,,O,2,,,,,,,,,,,,,,,,,,,,,,,19,0,38,1,,,,,,,,,,,,,,,,,,,,,,,,,,,,,,,,,,,,,,,,,,,,,,,,,,,,,,,,,,,,,,,,,,,,,,,,,,,,,,,,,,,,,,,,,,,,,,,835.0657627000473,836.0190279000672,2,1,0.47964809997938573,835.0657627000473,836.0190279000672,836.0164300999604,None,,,,,,,,,,,,,,,,,,,,,,,,,,,,,,,1102_t2,002,2,1,2022_Mar_16_1625,task_complete_blocked_LC_updated,2021.2.3,238.8932553537909,
,,,X,1,,,,,,,,,,,,,,,,,,,,,,,19,1,39,0,,,,,,,,,,,,,,,,,,,,,,,,,,,,,,,,,,,,,,,,,,,,,,,,,,,,,,,,,,,,,,,,,,,,,,,,,,,,,,,,,,,,,,,,,,,,,,,836.0667514000088,837.0187310000183,1,1,0.5742052000714466,836.0667514000088,837.0187310000183,837.0145625000587,None,,,,,,,,,,,,,,,,,,,,,,,,,,,,,,,1102_t2,002,2,1,2022_Mar_16_1625,task_complete_blocked_LC_updated,2021.2.3,238.8932553537909,
,,,O,2,,,,,,,,,,,,,,,,,,,,,,,20,0,40,1,,,,,,,,,,,,,,,,,,,,,,,,,,,,,,,,,,,,,,,,,,,,,,,,,,,,,,,,,,,,,,,,,,,,,,,,,,,,,,,,,,,,,,,,,,,,,,,837.0671122999629,838.0184054999845,2,1,0.26586699998006225,837.0671122999629,838.0184054999845,838.0138877000427,None,,,,,,,,,,,,,,,,,,,,,,,,,,,,,,,1102_t2,002,2,1,2022_Mar_16_1625,task_complete_blocked_LC_updated,2021.2.3,238.8932553537909,
,,,X,1,,,,,,,,,,,,,,,,,,,,,,,20,1,41,0,,,,,,,,,,,,,,,,,,,,,,,,,,,,,,,,,,,,,,,,,,,,,,,,,,,,,,,,,,,,,,,,,,,,,,,,,,,,,,,,,,,,,,,,,,,,,,,838.0659296000376,839.0176230999641,1,1,0.5049986999947578,838.0659296000376,839.0176230999641,839.0141973999562,None,,,,,,,,,,,,,,,,,,,,,,,,,,,,,,,1102_t2,002,2,1,2022_Mar_16_1625,task_complete_blocked_LC_updated,2021.2.3,238.8932553537909,
,,,O,2,,,,,,,,,,,,,,,,,,,,,,,21,0,42,1,,,,,,,,,,,,,,,,,,,,,,,,,,,,,,,,,,,,,,,,,,,,,,,,,,,,,,,,,,,,,,,,,,,,,,,,,,,,,,,,,,,,,,,,,,,,,,,839.065391400014,840.0136955999769,2,1,0.26300649996846914,839.065391400014,840.0136955999769,840.0103825000115,None,,,,,,,,,,,,,,,,,,,,,,,,,,,,,,,1102_t2,002,2,1,2022_Mar_16_1625,task_complete_blocked_LC_updated,2021.2.3,238.8932553537909,
,,,X,1,,,,,,,,,,,,,,,,,,,,,,,21,1,43,0,,,,,,,,,,,,,,,,,,,,,,,,,,,,,,,,,,,,,,,,,,,,,,,,,,,,,,,,,,,,,,,,,,,,,,,,,,,,,,,,,,,,,,,,,,,,,,,840.0631469000364,841.0115375999594,1,1,0.3537734999554232,840.0631469000364,841.0115375999594,841.0115375999594,840.0631469000364,,,,,,,,,,,,,,,,,,,,,,,,,,,,,,,1102_t2,002,2,1,2022_Mar_16_1625,task_complete_blocked_LC_updated,2021.2.3,238.8932553537909,
,,,O,2,,,,,,,,,,,,,,,,,,,,,,,22,0,44,1,,,,,,,,,,,,,,,,,,,,,,,,,,,,,,,,,,,,,,,,,,,,,,,,,,,,,,,,,,,,,,,,,,,,,,,,,,,,,,,,,,,,,,,,,,,,,,,841.06417040003,842.0169613000471,2,1,0.2422989000333473,841.06417040003,842.0169613000471,842.0136630999623,841.06417040003,,,,,,,,,,,,,,,,,,,,,,,,,,,,,,,1102_t2,002,2,1,2022_Mar_16_1625,task_complete_blocked_LC_updated,2021.2.3,238.8932553537909,
,,,X,1,,,,,,,,,,,,,,,,,,,,,,,22,1,45,0,,,,,,,,,,,,,,,,,,,,,,,,,,,,,,,,,,,,,,,,,,,,,,,,,,,,,,,,,,,,,,,,,,,,,,,,,,,,,,,,,,,,,,,,,,,,,,,842.0655229999684,843.0193563000066,1,1,0.3271100999554619,842.0655229999684,843.0193563000066,843.0193563000066,None,,,,,,,,,,,,,,,,,,,,,,,,,,,,,,,1102_t2,002,2,1,2022_Mar_16_1625,task_complete_blocked_LC_updated,2021.2.3,238.8932553537909,
,,,O,2,,,,,,,,,,,,,,,,,,,,,,,23,0,46,1,,,,,,,,,,,,,,,,,,,,,,,,,,,,,,,,,,,,,,,,,,,,,,,,,,,,,,,,,,,,,,,,,,,,,,,,,,,,,,,,,,,,,,,,,,,,,,,843.0650859000161,844.0192783999955,2,1,0.22985990007873625,843.0650859000161,844.0192783999955,844.0114197999937,None,,,,,,,,,,,,,,,,,,,,,,,,,,,,,,,1102_t2,002,2,1,2022_Mar_16_1625,task_complete_blocked_LC_updated,2021.2.3,238.8932553537909,
,,,X,1,,,,,,,,,,,,,,,,,,,,,,,23,1,47,0,,,,,,,,,,,,,,,,,,,,,,,,,,,,,,,,,,,,,,,,,,,,,,,,,,,,,,,,,,,,,,,,,,,,,,,,,,,,,,,,,,,,,,,,,,,,,,,844.0643619999755,845.0132883000188,1,1,0.4234767999732867,844.0643619999755,845.0132883000188,845.0132883000188,844.0643619999755,,,,,,,,,,,,,,,,,,,,,,,,,,,,,,,1102_t2,002,2,1,2022_Mar_16_1625,task_complete_blocked_LC_updated,2021.2.3,238.8932553537909,
,,,O,2,,,,,,,,,,,,,,,,,,,,,,,24,0,48,1,,,,,,,,,,,,,,,,,,,,,,,,,,,,,,,,,,,,,,,,,,,,,,,,,,,,,,,,,,,,,,,,,,,,,,,,,,,,,,,,,,,,,,,,,,,,,,,845.0656061000191,846.0156436000252,2,1,0.4003598000854254,845.0656061000191,846.0156436000252,846.0119914000388,None,,,,,,,,,,,,,,,,,,,,,,,,,,,,,,,1102_t2,002,2,1,2022_Mar_16_1625,task_complete_blocked_LC_updated,2021.2.3,238.8932553537909,
,,,X,1,,,,,,,,,,,,,,,,,,,,,,,24,1,49,0,,,,,,,,,,,,,,,,,,,,,,,,,,,,,,,,,,,,,,,,,,,,,,,,,,,,,,,,,,,,,,,,,,,,,,,,,,,,,,,,,,,,,,,,,,,,,,,846.0657572000055,847.0195356999757,1,1,0.3672557999379933,846.0657572000055,847.0195356999757,847.0162565000355,None,,,,,,,,,,,,,,,,,,,,,,,,,,,,,,,1102_t2,002,2,1,2022_Mar_16_1625,task_complete_blocked_LC_updated,2021.2.3,238.8932553537909,
,,,X,1,,,,,,,,,,,,,,,,,,,,,,,25,0,50,0,,,,,,,,,,,,,,,,,,,,,,,,,,,,,,,,,,,,,,,,,,,,,,,,,,,,,,,,,,,,,,,,,,,,,,,,,,,,,,,,,,,,,,,,,,,,,,,847.0688754000003,848.0209053000435,1,1,0.50442569993902,847.0688754000003,848.0209053000435,848.0120122999651,None,,,,,,,,,,,,,,,,,,,,,,,,,,,,,,,1102_t2,002,2,1,2022_Mar_16_1625,task_complete_blocked_LC_updated,2021.2.3,238.8932553537909,
,,,O,2,,,,,,,,,,,,,,,,,,,,,,,25,1,51,1,,,,,,,,,,,,,,,,,,,,,,,,,,,,,,,,,,,,,,,,,,,,,,,,,,,,,,,,,,,,,,,,,,,,,,,,,,,,,,,,,,,,,,,,,,,,,,,848.0647587999701,849.0160305000609,2,1,0.6294167999876663,848.0647587999701,849.0160305000609,849.0124603000004,None,,,,,,,,,,,,,,,,,,,,,,,,,,,,,,,1102_t2,002,2,1,2022_Mar_16_1625,task_complete_blocked_LC_updated,2021.2.3,238.8932553537909,
,,,O,2,,,,,,,,,,,,,,,,,,,,,,,26,0,52,1,,,,,,,,,,,,,,,,,,,,,,,,,,,,,,,,,,,,,,,,,,,,,,,,,,,,,,,,,,,,,,,,,,,,,,,,,,,,,,,,,,,,,,,,,,,,,,,849.065786799998,850.0145343999611,2,1,0.449121700017713,849.065786799998,850.0145343999611,850.0115082999691,None,,,,,,,,,,,,,,,,,,,,,,,,,,,,,,,1102_t2,002,2,1,2022_Mar_16_1625,task_complete_blocked_LC_updated,2021.2.3,238.8932553537909,
,,,X,1,,,,,,,,,,,,,,,,,,,,,,,26,1,53,0,,,,,,,,,,,,,,,,,,,,,,,,,,,,,,,,,,,,,,,,,,,,,,,,,,,,,,,,,,,,,,,,,,,,,,,,,,,,,,,,,,,,,,,,,,,,,,,850.0635194999631,851.0129553000443,1,1,0.5340215000323951,850.0635194999631,851.0129553000443,851.009565699962,850.0635194999631,,,,,,,,,,,,,,,,,,,,,,,,,,,,,,,1102_t2,002,2,1,2022_Mar_16_1625,task_complete_blocked_LC_updated,2021.2.3,238.8932553537909,
,,,O,2,,,,,,,,,,,,,,,,,,,,,,,27,0,54,1,,,,,,,,,,,,,,,,,,,,,,,,,,,,,,,,,,,,,,,,,,,,,,,,,,,,,,,,,,,,,,,,,,,,,,,,,,,,,,,,,,,,,,,,,,,,,,,851.06687780004,852.0202506000642,2,1,0.31868699996266514,851.06687780004,852.0202506000642,852.01730149996,851.06687780004,,,,,,,,,,,,,,,,,,,,,,,,,,,,,,,1102_t2,002,2,1,2022_Mar_16_1625,task_complete_blocked_LC_updated,2021.2.3,238.8932553537909,
,,,X,1,,,,,,,,,,,,,,,,,,,,,,,27,1,55,0,,,,,,,,,,,,,,,,,,,,,,,,,,,,,,,,,,,,,,,,,,,,,,,,,,,,,,,,,,,,,,,,,,,,,,,,,,,,,,,,,,,,,,,,,,,,,,,852.0662148999982,853.0162533000112,1,1,0.4559887000359595,852.0662148999982,853.0162533000112,853.0123175999615,None,,,,,,,,,,,,,,,,,,,,,,,,,,,,,,,1102_t2,002,2,1,2022_Mar_16_1625,task_complete_blocked_LC_updated,2021.2.3,238.8932553537909,
,,,O,2,,,,,,,,,,,,,,,,,,,,,,,28,0,56,1,,,,,,,,,,,,,,,,,,,,,,,,,,,,,,,,,,,,,,,,,,,,,,,,,,,,,,,,,,,,,,,,,,,,,,,,,,,,,,,,,,,,,,,,,,,,,,,853.0657721000025,854.0229405000573,2,1,0.2703428999520838,853.0657721000025,854.0229405000573,854.0196853000671,None,,,,,,,,,,,,,,,,,,,,,,,,,,,,,,,1102_t2,002,2,1,2022_Mar_16_1625,task_complete_blocked_LC_updated,2021.2.3,238.8932553537909,
,,,X,1,,,,,,,,,,,,,,,,,,,,,,,28,1,57,0,,,,,,,,,,,,,,,,,,,,,,,,,,,,,,,,,,,,,,,,,,,,,,,,,,,,,,,,,,,,,,,,,,,,,,,,,,,,,,,,,,,,,,,,,,,,,,,854.0658734999597,855.0191084999824,1,1,0.3211784999584779,854.0658734999597,855.0191084999824,855.0159658000339,None,,,,,,,,,,,,,,,,,,,,,,,,,,,,,,,1102_t2,002,2,1,2022_Mar_16_1625,task_complete_blocked_LC_updated,2021.2.3,238.8932553537909,
,,,O,2,,,,,,,,,,,,,,,,,,,,,,,29,0,58,1,,,,,,,,,,,,,,,,,,,,,,,,,,,,,,,,,,,,,,,,,,,,,,,,,,,,,,,,,,,,,,,,,,,,,,,,,,,,,,,,,,,,,,,,,,,,,,,855.065831999993,856.019121899968,2,1,0.2380363999400288,855.065831999993,856.019121899968,856.0104199000634,None,,,,,,,,,,,,,,,,,,,,,,,,,,,,,,,1102_t2,002,2,1,2022_Mar_16_1625,task_complete_blocked_LC_updated,2021.2.3,238.8932553537909,
,,,X,1,,,,,,,,,,,,,,,,,,,,,,,29,1,59,0,,,,,,,,,,,,,,,,,,,,,,,,,,,,,,,,,,,,,,,,,,,,,,,,,,,,,,,,,,,,,,,,,,,,,,,,,,,,,,,,,,,,,,,,,,,,,,,856.0641357999993,857.0131349000148,1,1,0.4707435000455007,856.0641357999993,857.0131349000148,857.0131349000148,856.0641357999993,,,,,,,,,,,,,,,,,,,,,,,,,,,,,,,1102_t2,002,2,1,2022_Mar_16_1625,task_complete_blocked_LC_updated,2021.2.3,238.8932553537909,
,,,,,,,,,,,,,,,,,,,,,,,,,,,,,,,,,,,,,,,,,,,,,,,,,,,,,,,,,,,,,,,,,,,,,,,,,,,,,,,,,,,,,,,,,,,,,,,,,,,,,,,,,,,,,,,,,,,,,,,,,,,,,,,,,,,,,,857.06480990001,None,space,22.134966299985535,862.0647500000196,None,,,,,,,,,,,,,,,,,,,,,,,,,1102_t2,002,2,1,2022_Mar_16_1625,task_complete_blocked_LC_updated,2021.2.3,238.8932553537909,
,,,,,,,,,,,,,,,,,,,,,,,,,,,,,,,,,,,,,,,,,,,,,,,,,,,,,,,,,,,,,,,,,,,,,,,,,,,,,,,,,,,,,,,,,,,,,,,884.2080735999625,None,5,11.641339699970558,884.2080735999625,None,,,,,,,,,,,,,,,,,,,,,,,,,,,,,,,,,,,,,,,,862.0647500000196,None,,,,,,,,,,,,,,,,,,,,,,,1102_t2,002,2,1,2022_Mar_16_1625,task_complete_blocked_LC_updated,2021.2.3,238.8932553537909,
stimulus_images/Achampagnebo2.jpg,SPACE,0,,,,,,,,,,,,,,,,,,,,,,,,,,,,,0,0,0,4,,,,,,,,,,,,,,,,,,,,,,,,,,,,,,,,,,,,,,,,,,,,,,,,,,,,,,,,,,,,,,,,,,,2.500019036233425e-06,895.9000365999527,897.8981488000136,895.9000365999527,897.8981488000136,896.8984446000541,897.8981488000136,896.8984446000541,897.8981488000136,897.8981488000136,None,5.966105600004084,901.8620257000439,None,901.8620257000439,None,3,0.34775950002949685,901.8620257000439,None,907.8693108999869,None,,,,,,,,,,,,,,,,,,,,,,,,,,,,,,,,,,,,,,,,,,1102_t2,002,2,1,2022_Mar_16_1625,task_complete_blocked_LC_updated,2021.2.3,238.8932553537909,
stimulus_images/ALOAFBR4.jpg,SPACE,0,,,,,,,,,,,,,,,,,,,,,,,,,,,,,0,1,1,8,,,,,,,,,,,,,,,,,,,,,,,,,,,,,,,,,,,,,,,,,,,,,,,,,,,,,,,,,,,,,,,,,,,12.975586500018835,908.8738185999682,910.8743142000167,908.8738185999682,910.8743142000167,909.8696673000231,910.8712673999835,909.8696673000231,910.8712673999835,910.8671777000418,None,18.97578280000016,914.8712796999607,None,914.8712796999607,None,2,0.3264211999485269,914.8712796999607,None,920.8754072999582,None,,,,,,,,,,,,,,,,,,,,,,,,,,,,,,,,,,,,,,,,,,1102_t2,002,2,1,2022_Mar_16_1625,task_complete_blocked_LC_updated,2021.2.3,238.8932553537909,
stimulus_images/Abasket108.jpg,SPACE,0,,,,,,,,,,,,,,,,,,,,,,,,,,,,,0,2,2,1,,,,,,,,,,,,,,,,,,,,,,,,,,,,,,,,,,,,,,,,,,,,,,,,,,,,,,,,,,,,,,,,,,,26.98411890002899,922.8835822000401,924.883183100028,922.8835822000401,924.883183100028,923.8775596000487,924.8761812000303,923.8775596000487,924.8761812000303,924.8761812000303,None,32.983736100024544,928.8791718999855,None,928.8791718999855,None,4,0.4439858999103308,928.8791718999855,None,934.8792800999945,None,,,,,,,,,,,,,,,,,,,,,,,,,,,,,,,,,,,,,,,,,,1102_t2,002,2,1,2022_Mar_16_1625,task_complete_blocked_LC_updated,2021.2.3,238.8932553537909,
stimulus_images/Acactusplant.jpg,SPACE,1,,,,,,,,,,,,,,,,,,,,,,,,,,,,,0,3,3,3,,,,,,,,,,,,,,,,,,,,,,,,,,,,,,,,,,,,,,,,,,,,,,,,,,,,,,,,,,,,,,,,,,,41.98813780001365,937.8872411999619,939.8944207000313,937.8872411999619,939.8944207000313,938.8819275000133,939.8817895000102,938.8819275000133,939.8817895000102,939.8817895000102,None,47.98813800001517,943.8883791000117,None,943.8883791000117,None,4,0.5374927000375465,943.8883791000117,None,949.8878515999531,None,,,,,,,,,,,,,,,,,,,,,,,,,,,,,,,,,,,,,,,,,,1102_t2,002,2,1,2022_Mar_16_1625,task_complete_blocked_LC_updated,2021.2.3,238.8932553537909,
stimulus_images/ACUTBOAR2.jpg,SPACE,0,,,,,,,,,,,,,,,,,,,,,,,,,,,,,0,4,4,5,,,,,,,,,,,,,,,,,,,,,,,,,,,,,,,,,,,,,,,,,,,,,,,,,,,,,,,,,,,,,,,,,,,56.9959608000936,952.8944371000398,954.8948147000046,952.8944371000398,954.8948147000046,953.8869225999806,954.8878537999699,953.8869225999806,954.8878537999699,954.8878537999699,None,62.99629540008027,958.8913929000264,None,958.8913929000264,None,4,0.4495788000058383,958.8913929000264,None,964.8919558000052,None,,,,,,,,,,,,,,,,,,,,,,,,,,,,,,,,,,,,,,,,,,1102_t2,002,2,1,2022_Mar_16_1625,task_complete_blocked_LC_updated,2021.2.3,238.8932553537909,
stimulus_images/Ababybottle15.jpg,SPACE,0,,,,,,,,,,,,,,,,,,,,,,,,,,,,,0,5,5,0,,,,,,,,,,,,,,,,,,,,,,,,,,,,,,,,,,,,,,,,,,,,,,,,,,,,,,,,,,,,,,,,,,,70.00145089998841,965.9060199999949,967.910375699983,965.9060199999949,967.910375699983,966.9028660999611,967.910375699983,966.9028660999611,967.910375699983,967.910375699983,None,76.00319370010402,971.898516700021,None,971.898516700021,None,4,0.9854070000583306,971.898516700021,None,977.9019249000121,None,,,,,,,,,,,,,,,,,,,,,,,,,,,,,,,,,,,,,,,,,,1102_t2,002,2,1,2022_Mar_16_1625,task_complete_blocked_LC_updated,2021.2.3,238.8932553537909,
stimulus_images/Aflower102.jpg,SPACE,0,,,,,,,,,,,,,,,,,,,,,,,,,,,,,0,6,6,6,,,,,,,,,,,,,,,,,,,,,,,,,,,,,,,,,,,,,,,,,,,,,,,,,,,,,,,,,,,,,,,,,,,84.00907270004973,979.9143531000009,981.9134556000354,979.9143531000009,981.9134556000354,980.9110823000083,981.9134556000354,980.9110823000083,981.9134556000354,981.9105963000329,None,90.0116021001013,985.9068919999991,None,985.9068919999991,None,2,0.3180634999880567,985.9068919999991,None,991.9065718000056,None,,,,,,,,,,,,,,,,,,,,,,,,,,,,,,,,,,,,,,,,,,1102_t2,002,2,1,2022_Mar_16_1625,task_complete_blocked_LC_updated,2021.2.3,238.8932553537909,
stimulus_images/Aplantinpot2.jpg,SPACE,0,,,,,,,,,,,,,,,,,,,,,,,,,,,,,0,7,7,9,,,,,,,,,,,,,,,,,,,,,,,,,,,,,,,,,,,,,,,,,,,,,,,,,,,,,,,,,,,,,,,,,,,97.01362570002675,992.9141675999854,994.9160899999551,992.9141675999854,994.9160899999551,993.9072139000054,994.9078439000295,993.9072139000054,994.9078439000295,994.9078439000295,None,103.01324310002383,998.9088209000183,None,998.9088209000183,None,2,1.5220294001046568,998.9088209000183,None,1004.9128311000532,None,,,,,,,,,,,,,,,,,,,,,,,,,,,,,,,,,,,,,,,,,,1102_t2,002,2,1,2022_Mar_16_1625,task_complete_blocked_LC_updated,2021.2.3,238.8932553537909,
stimulus_images/Aboardgame6.jpg,SPACE,0,,,,,,,,,,,,,,,,,,,,,,,,,,,,,0,8,8,2,,,,,,,,,,,,,,,,,,,,,,,,,,,,,,,,,,,,,,,,,,,,,,,,,,,,,,,,,,,,,,,,,,,112.02163100009784,1007.927165000001,1009.9262137999758,1007.927165000001,1009.9262137999758,1008.9240184000228,1009.9262137999758,1008.9240184000228,1009.9262137999758,1009.9235945000546,None,118.0240983000258,1013.919552700012,None,1013.919552700012,None,3,0.3229562999913469,1013.919552700012,None,1019.9167079000035,None,,,,,,,,,,,,,,,,,,,,,,,,,,,,,,,,,,,,,,,,,,1102_t2,002,2,1,2022_Mar_16_1625,task_complete_blocked_LC_updated,2021.2.3,238.8932553537909,
stimulus_images/Ahandbag50.jpg,SPACE,1,,,,,,,,,,,,,,,,,,,,,,,,,,,,,0,9,9,7,,,,,,,,,,,,,,,,,,,,,,,,,,,,,,,,,,,,,,,,,,,,,,,,,,,,,,,,,,,,,,,,,,,126.02191450004466,1021.9205055000493,1023.9196543999715,1021.9205055000493,1023.9196543999715,1022.9159551999765,1023.9158599000657,1022.9159551999765,1023.9158599000657,1023.9158599000657,None,132.02144780009985,1027.9169934999663,None,1027.9169934999663,None,3,1.0229433999629691,1027.9169934999663,None,1033.9187250999967,None,,,,,,,,,,,,,,,,,,,,,,,,,,,,,,,,,,,,,,,,,,1102_t2,002,2,1,2022_Mar_16_1625,task_complete_blocked_LC_updated,2021.2.3,238.8932553537909,
stimulus_images/pencil-a.jpg,SPACE,0,,,,,,,,,,,,,,,,,,,,,,,,,,,,,,,,,0,0,0,2,,,,,,,,,,,,,,,,,,,,,,,,,,,,,,,,,,,,,,,,,,,,,,,,,,,,,,,,,,,,,,,140.0334359999979,1035.938028799952,1037.9411092000082,1035.938028799952,1037.9411092000082,1036.9326033999678,1037.9326745000435,1036.9326033999678,1037.9326745000435,1037.9326745000435,None,146.02879090001807,1041.9239138000412,None,1041.9239138000412,None,3,1.2774594000075012,1041.9239138000412,None,1047.922918300028,None,,,,,,,,,,,,,,,,,,,,,,,,,,,,,,,,,,,,,,,,,,1102_t2,002,2,1,2022_Mar_16_1625,task_complete_blocked_LC_updated,2021.2.3,238.8932553537909,
stimulus_images/AANTFRYI2.jpg,SPACE,0,,,,,,,,,,,,,,,,,,,,,,,,,,,,,,,,,0,1,1,5,,,,,,,,,,,,,,,,,,,,,,,,,,,,,,,,,,,,,,,,,,,,,,,,,,,,,,,,,,,,,,,154.02987680002116,1049.9350749000441,1051.93332489999,1049.9350749000441,1051.93332489999,1050.9293413000414,1051.9302472999552,1050.9293413000414,1051.9302472999552,1051.9302472999552,None,160.03284750005696,1055.9280504999915,None,1055.9280504999915,None,None,,1055.9280504999915,None,1061.931426999974,None,,,,,,,,,,,,,,,,,,,,,,,,,,,,,,,,,,,,,,,,,,1102_t2,002,2,1,2022_Mar_16_1625,task_complete_blocked_LC_updated,2021.2.3,238.8932553537909,
stimulus_images/AAEROBENC.jpg,SPACE,0,,,,,,,,,,,,,,,,,,,,,,,,,,,,,,,,,0,2,2,4,,,,,,,,,,,,,,,,,,,,,,,,,,,,,,,,,,,,,,,,,,,,,,,,,,,,,,,,,,,,,,,167.0385906000156,1062.9441965000005,1064.949185900041,1062.9441965000005,1064.949185900041,1063.9418210999575,1064.944465000066,1063.9418210999575,1064.944465000066,1064.944465000066,None,173.04126060009003,1068.9365608000662,None,1068.9365608000662,None,2,1.5139163000276312,1068.9365608000662,None,1074.9430784999859,None,,,,,,,,,,,,,,,,,,,,,,,,,,,,,,,,,,,,,,,,,,1102_t2,002,2,1,2022_Mar_16_1625,task_complete_blocked_LC_updated,2021.2.3,238.8932553537909,
stimulus_images/Abrooch100.jpg,SPACE,0,,,,,,,,,,,,,,,,,,,,,,,,,,,,,,,,,0,3,3,9,,,,,,,,,,,,,,,,,,,,,,,,,,,,,,,,,,,,,,,,,,,,,,,,,,,,,,,,,,,,,,,182.05138120008633,1077.94920979999,1079.9549388999585,1077.94920979999,1079.9549388999585,1078.9456193000078,1079.9514278999995,1078.9456193000078,1079.9514278999995,1079.9514278999995,None,188.05377520003822,1083.9491057000123,None,1083.9491057000123,None,2,0.5497500998899341,1083.9491057000123,None,1089.9512114999816,None,,,,,,,,,,,,,,,,,,,,,,,,,,,,,,,,,,,,,,,,,,1102_t2,002,2,1,2022_Mar_16_1625,task_complete_blocked_LC_updated,2021.2.3,238.8932553537909,
stimulus_images/AARTPLANT.jpg,SPACE,0,,,,,,,,,,,,,,,,,,,,,,,,,,,,,,,,,0,4,4,6,,,,,,,,,,,,,,,,,,,,,,,,,,,,,,,,,,,,,,,,,,,,,,,,,,,,,,,,,,,,,,,196.0598007000517,1091.9594232999953,1093.9576625999762,1091.9594232999953,1093.9576625999762,1092.9544229999883,1093.9543734999606,1092.9544229999883,1093.9543734999606,1093.9543734999606,None,202.05975150002632,1097.955361200031,None,1097.955361200031,None,2,0.8232936999993399,1097.955361200031,None,1103.9593681000406,None,,,,,,,,,,,,,,,,,,,,,,,,,,,,,,,,,,,,,,,,,,1102_t2,002,2,1,2022_Mar_16_1625,task_complete_blocked_LC_updated,2021.2.3,238.8932553537909,
stimulus_images/Abananasundae.jpg,SPACE,1,,,,,,,,,,,,,,,,,,,,,,,,,,,,,,,,,0,5,5,7,,,,,,,,,,,,,,,,,,,,,,,,,,,,,,,,,,,,,,,,,,,,,,,,,,,,,,,,,,,,,,,211.06813400005922,1106.9673755000113,1108.9659384000115,1106.9673755000113,1108.9659384000115,1107.9634876999771,1108.962875999976,1107.9634876999771,1108.962875999976,1108.962875999976,None,217.07096080004703,1112.9661701000296,None,1112.9661701000296,None,2,1.0742743000155315,1112.9661701000296,None,1118.9633937999606,None,,,,,,,,,,,,,,,,,,,,,,,,,,,,,,,,,,,,,,,,,,1102_t2,002,2,1,2022_Mar_16_1625,task_complete_blocked_LC_updated,2021.2.3,238.8932553537909,
stimulus_images/ABISHOP2.jpg,SPACE,0,,,,,,,,,,,,,,,,,,,,,,,,,,,,,,,,,0,6,6,8,,,,,,,,,,,,,,,,,,,,,,,,,,,,,,,,,,,,,,,,,,,,,,,,,,,,,,,,,,,,,,,226.07230620004702,1121.9703860000009,1123.968667899957,1121.9703860000009,1123.968667899957,1122.966346399975,1123.968667899957,1122.966346399975,1123.968667899957,1123.9655269000214,None,232.0726687000133,1127.9676806000061,None,1127.9676806000061,None,4,0.7269596999976784,1127.9676806000061,None,1133.9680948000168,None,,,,,,,,,,,,,,,,,,,,,,,,,,,,,,,,,,,,,,,,,,1102_t2,002,2,1,2022_Mar_16_1625,task_complete_blocked_LC_updated,2021.2.3,238.8932553537909,
stimulus_images/A_teabag.jpg,SPACE,1,,,,,,,,,,,,,,,,,,,,,,,,,,,,,,,,,0,7,7,3,,,,,,,,,,,,,,,,,,,,,,,,,,,,,,,,,,,,,,,,,,,,,,,,,,,,,,,,,,,,,,,240.07730740006082,1135.982023700024,1137.9833589000627,1135.982023700024,1137.9833589000627,1136.9801220999798,1137.9804486000212,1136.9801220999798,1137.9804486000212,1137.9804486000212,None,246.07903900009114,1141.974450699985,None,1141.974450699985,None,3,1.049285199958831,1141.974450699985,None,1147.9736947000492,None,,,,,,,,,,,,,,,,,,,,,,,,,,,,,,,,,,,,,,,,,,1102_t2,002,2,1,2022_Mar_16_1625,task_complete_blocked_LC_updated,2021.2.3,238.8932553537909,
stimulus_images/ASEWINGT4.jpg,SPACE,0,,,,,,,,,,,,,,,,,,,,,,,,,,,,,,,,,0,8,8,0,,,,,,,,,,,,,,,,,,,,,,,,,,,,,,,,,,,,,,,,,,,,,,,,,,,,,,,,,,,,,,,253.08085680007935,1148.9968839000212,1150.9996291999705,1148.9968839000212,1150.9996291999705,1149.9882148000179,1150.9886039999546,1149.9882148000179,1150.9886039999546,1150.9886039999546,None,259.0833627000684,1154.978534599999,None,1154.978534599999,None,3,0.709989900002256,1154.978534599999,None,1160.98185630003,None,,,,,,,,,,,,,,,,,,,,,,,,,,,,,,,,,,,,,,,,,,1102_t2,002,2,1,2022_Mar_16_1625,task_complete_blocked_LC_updated,2021.2.3,238.8932553537909,
stimulus_images/Awatch28.jpg,SPACE,1,,,,,,,,,,,,,,,,,,,,,,,,,,,,,,,,,0,9,9,1,,,,,,,,,,,,,,,,,,,,,,,,,,,,,,,,,,,,,,,,,,,,,,,,,,,,,,,,,,,,,,,266.08911870000884,1161.992999500013,1163.9928003000095,1161.992999500013,1163.9928003000095,1162.9927083000075,1163.9928003000095,1162.9927083000075,1163.9928003000095,1163.9886196999578,None,272.09196099999826,1167.987118500052,None,1167.987118500052,None,4,0.982518499949947,1167.987118500052,None,1173.9868062000023,None,,,,,,,,,,,,,,,,,,,,,,,,,,,,,,,,,,,,,,,,,,1102_t2,002,2,1,2022_Mar_16_1625,task_complete_blocked_LC_updated,2021.2.3,238.8932553537909,
,,,O,2,,,,,,,,,,,,,,,,,,,,,,,,,,,,,,,,,,,0,0,0,1,,,,,,,,,,,,,,,,,,,,,,,,,,,,,,,,,,,,,,,,,,,,,,,,,,,,,,,,,,,,,,,,,,,,,,,,,,,,,,,,,1175.9884373999666,None,1178.9959870000603,1179.9487068000017,2,1,0.6198224999243394,1178.9959870000603,1179.9487068000017,1179.9451962000458,None,,,,,,,,,,,,,,,,,,,,,,,,,,,,,,,1102_t2,002,2,1,2022_Mar_16_1625,task_complete_blocked_LC_updated,2021.2.3,238.8932553537909,
,,,X,1,,,,,,,,,,,,,,,,,,,,,,,,,,,,,,,,,,,0,1,1,0,,,,,,,,,,,,,,,,,,,,,,,,,,,,,,,,,,,,,,,,,,,,,,,,,,,,,,,,,,,,,,,,,,,,,,,,,,,,,,,,,,,1179.9930832999526,1180.946648000041,1,1,0.33830369997303933,1179.9930832999526,1180.946648000041,1180.9430163999787,None,,,,,,,,,,,,,,,,,,,,,,,,,,,,,,,1102_t2,002,2,1,2022_Mar_16_1625,task_complete_blocked_LC_updated,2021.2.3,238.8932553537909,
,,,O,2,,,,,,,,,,,,,,,,,,,,,,,,,,,,,,,,,,,1,0,2,1,,,,,,,,,,,,,,,,,,,,,,,,,,,,,,,,,,,,,,,,,,,,,,,,,,,,,,,,,,,,,,,,,,,,,,,,,,,,,,,,,,,1180.9931474999757,1181.9430279000662,2,1,0.3764544000150636,1180.9931474999757,1181.9430279000662,1181.9389209999936,None,,,,,,,,,,,,,,,,,,,,,,,,,,,,,,,1102_t2,002,2,1,2022_Mar_16_1625,task_complete_blocked_LC_updated,2021.2.3,238.8932553537909,
,,,X,1,,,,,,,,,,,,,,,,,,,,,,,,,,,,,,,,,,,1,1,3,0,,,,,,,,,,,,,,,,,,,,,,,,,,,,,,,,,,,,,,,,,,,,,,,,,,,,,,,,,,,,,,,,,,,,,,,,,,,,,,,,,,,1181.9956796000479,1182.9478208000073,1,1,0.2974297000328079,1181.9956796000479,1182.9478208000073,1182.9446224999847,None,,,,,,,,,,,,,,,,,,,,,,,,,,,,,,,1102_t2,002,2,1,2022_Mar_16_1625,task_complete_blocked_LC_updated,2021.2.3,238.8932553537909,
,,,O,2,,,,,,,,,,,,,,,,,,,,,,,,,,,,,,,,,,,2,0,4,1,,,,,,,,,,,,,,,,,,,,,,,,,,,,,,,,,,,,,,,,,,,,,,,,,,,,,,,,,,,,,,,,,,,,,,,,,,,,,,,,,,,1182.9929562000325,1183.9464765000157,2,1,0.46759939996991307,1182.9929562000325,1183.9464765000157,1183.9369431000669,None,,,,,,,,,,,,,,,,,,,,,,,,,,,,,,,1102_t2,002,2,1,2022_Mar_16_1625,task_complete_blocked_LC_updated,2021.2.3,238.8932553537909,
,,,X,1,,,,,,,,,,,,,,,,,,,,,,,,,,,,,,,,,,,2,1,5,0,,,,,,,,,,,,,,,,,,,,,,,,,,,,,,,,,,,,,,,,,,,,,,,,,,,,,,,,,,,,,,,,,,,,,,,,,,,,,,,,,,,1183.993465699954,1184.942715800018,1,1,0.33005280001088977,1183.993465699954,1184.942715800018,1184.9391134000616,1183.993465699954,,,,,,,,,,,,,,,,,,,,,,,,,,,,,,,1102_t2,002,2,1,2022_Mar_16_1625,task_complete_blocked_LC_updated,2021.2.3,238.8932553537909,
,,,X,1,,,,,,,,,,,,,,,,,,,,,,,,,,,,,,,,,,,3,0,6,0,,,,,,,,,,,,,,,,,,,,,,,,,,,,,,,,,,,,,,,,,,,,,,,,,,,,,,,,,,,,,,,,,,,,,,,,,,,,,,,,,,,1184.992226600065,1185.9468982999679,1,1,0.4643399000633508,1184.992226600065,1185.9468982999679,1185.9420002000406,None,,,,,,,,,,,,,,,,,,,,,,,,,,,,,,,1102_t2,002,2,1,2022_Mar_16_1625,task_complete_blocked_LC_updated,2021.2.3,238.8932553537909,
,,,O,2,,,,,,,,,,,,,,,,,,,,,,,,,,,,,,,,,,,3,1,7,1,,,,,,,,,,,,,,,,,,,,,,,,,,,,,,,,,,,,,,,,,,,,,,,,,,,,,,,,,,,,,,,,,,,,,,,,,,,,,,,,,,,1185.9923469000496,1186.947331000003,2,1,0.35304870002437383,1185.9923469000496,1186.947331000003,1186.9367537000217,None,,,,,,,,,,,,,,,,,,,,,,,,,,,,,,,1102_t2,002,2,1,2022_Mar_16_1625,task_complete_blocked_LC_updated,2021.2.3,238.8932553537909,
,,,O,2,,,,,,,,,,,,,,,,,,,,,,,,,,,,,,,,,,,4,0,8,1,,,,,,,,,,,,,,,,,,,,,,,,,,,,,,,,,,,,,,,,,,,,,,,,,,,,,,,,,,,,,,,,,,,,,,,,,,,,,,,,,,,1186.9892928999616,1187.9385016000597,2,1,0.4680269999662414,1186.9892928999616,1187.9385016000597,1187.9361504999688,1186.9892928999616,,,,,,,,,,,,,,,,,,,,,,,,,,,,,,,1102_t2,002,2,1,2022_Mar_16_1625,task_complete_blocked_LC_updated,2021.2.3,238.8932553537909,
,,,X,1,,,,,,,,,,,,,,,,,,,,,,,,,,,,,,,,,,,4,1,9,0,,,,,,,,,,,,,,,,,,,,,,,,,,,,,,,,,,,,,,,,,,,,,,,,,,,,,,,,,,,,,,,,,,,,,,,,,,,,,,,,,,,1187.989356999984,1188.9401698999573,1,1,0.29241059999912977,1187.989356999984,1188.9401698999573,1188.936673899996,1187.989356999984,,,,,,,,,,,,,,,,,,,,,,,,,,,,,,,1102_t2,002,2,1,2022_Mar_16_1625,task_complete_blocked_LC_updated,2021.2.3,238.8932553537909,
,,,O,2,,,,,,,,,,,,,,,,,,,,,,,,,,,,,,,,,,,5,0,10,1,,,,,,,,,,,,,,,,,,,,,,,,,,,,,,,,,,,,,,,,,,,,,,,,,,,,,,,,,,,,,,,,,,,,,,,,,,,,,,,,,,,1188.9890762000578,1189.9388188000303,2,1,0.44057590002194047,1188.9890762000578,1189.9388188000303,1189.9388188000303,1188.9890762000578,,,,,,,,,,,,,,,,,,,,,,,,,,,,,,,1102_t2,002,2,1,2022_Mar_16_1625,task_complete_blocked_LC_updated,2021.2.3,238.8932553537909,
,,,X,1,,,,,,,,,,,,,,,,,,,,,,,,,,,,,,,,,,,5,1,11,0,,,,,,,,,,,,,,,,,,,,,,,,,,,,,,,,,,,,,,,,,,,,,,,,,,,,,,,,,,,,,,,,,,,,,,,,,,,,,,,,,,,1189.99272129999,1190.9417529000202,1,1,0.3709326999960467,1189.99272129999,1190.9417529000202,1190.9385703000007,None,,,,,,,,,,,,,,,,,,,,,,,,,,,,,,,1102_t2,002,2,1,2022_Mar_16_1625,task_complete_blocked_LC_updated,2021.2.3,238.8932553537909,
,,,O,2,,,,,,,,,,,,,,,,,,,,,,,,,,,,,,,,,,,6,0,12,1,,,,,,,,,,,,,,,,,,,,,,,,,,,,,,,,,,,,,,,,,,,,,,,,,,,,,,,,,,,,,,,,,,,,,,,,,,,,,,,,,,,1190.9921932000434,1191.944217900047,2,1,0.4596097000176087,1190.9921932000434,1191.944217900047,1191.940771499998,None,,,,,,,,,,,,,,,,,,,,,,,,,,,,,,,1102_t2,002,2,1,2022_Mar_16_1625,task_complete_blocked_LC_updated,2021.2.3,238.8932553537909,
,,,X,1,,,,,,,,,,,,,,,,,,,,,,,,,,,,,,,,,,,6,1,13,0,,,,,,,,,,,,,,,,,,,,,,,,,,,,,,,,,,,,,,,,,,,,,,,,,,,,,,,,,,,,,,,,,,,,,,,,,,,,,,,,,,,1191.9923595000291,1192.9455235999776,1,1,0.2758922000648454,1191.9923595000291,1192.9455235999776,1192.942186600063,None,,,,,,,,,,,,,,,,,,,,,,,,,,,,,,,1102_t2,002,2,1,2022_Mar_16_1625,task_complete_blocked_LC_updated,2021.2.3,238.8932553537909,
,,,X,1,,,,,,,,,,,,,,,,,,,,,,,,,,,,,,,,,,,7,0,14,0,,,,,,,,,,,,,,,,,,,,,,,,,,,,,,,,,,,,,,,,,,,,,,,,,,,,,,,,,,,,,,,,,,,,,,,,,,,,,,,,,,,1192.9929020999698,1193.9417323999805,1,1,0.4267067000037059,1192.9929020999698,1193.9417323999805,1193.9385134000331,None,,,,,,,,,,,,,,,,,,,,,,,,,,,,,,,1102_t2,002,2,1,2022_Mar_16_1625,task_complete_blocked_LC_updated,2021.2.3,238.8932553537909,
,,,O,2,,,,,,,,,,,,,,,,,,,,,,,,,,,,,,,,,,,7,1,15,1,,,,,,,,,,,,,,,,,,,,,,,,,,,,,,,,,,,,,,,,,,,,,,,,,,,,,,,,,,,,,,,,,,,,,,,,,,,,,,,,,,,1193.995020100032,1194.947986299987,2,1,0.3585710999323055,1193.995020100032,1194.947986299987,1194.9439391000196,1193.995020100032,,,,,,,,,,,,,,,,,,,,,,,,,,,,,,,1102_t2,002,2,1,2022_Mar_16_1625,task_complete_blocked_LC_updated,2021.2.3,238.8932553537909,
,,,O,2,,,,,,,,,,,,,,,,,,,,,,,,,,,,,,,,,,,8,0,16,1,,,,,,,,,,,,,,,,,,,,,,,,,,,,,,,,,,,,,,,,,,,,,,,,,,,,,,,,,,,,,,,,,,,,,,,,,,,,,,,,,,,1194.991568800062,1195.9439998000162,2,1,0.3429889000253752,1194.991568800062,1195.9439998000162,1195.9439998000162,None,,,,,,,,,,,,,,,,,,,,,,,,,,,,,,,1102_t2,002,2,1,2022_Mar_16_1625,task_complete_blocked_LC_updated,2021.2.3,238.8932553537909,
,,,X,1,,,,,,,,,,,,,,,,,,,,,,,,,,,,,,,,,,,8,1,17,0,,,,,,,,,,,,,,,,,,,,,,,,,,,,,,,,,,,,,,,,,,,,,,,,,,,,,,,,,,,,,,,,,,,,,,,,,,,,,,,,,,,1195.9920798999956,1196.94286499999,1,1,0.5380380999995396,1195.9920798999956,1196.94286499999,1196.9392050000606,None,,,,,,,,,,,,,,,,,,,,,,,,,,,,,,,1102_t2,002,2,1,2022_Mar_16_1625,task_complete_blocked_LC_updated,2021.2.3,238.8932553537909,
,,,O,2,,,,,,,,,,,,,,,,,,,,,,,,,,,,,,,,,,,9,0,18,1,,,,,,,,,,,,,,,,,,,,,,,,,,,,,,,,,,,,,,,,,,,,,,,,,,,,,,,,,,,,,,,,,,,,,,,,,,,,,,,,,,,1196.9929887000471,1197.9475271999836,2,1,0.47787719999905676,1196.9929887000471,1197.9475271999836,1197.9447007999988,None,,,,,,,,,,,,,,,,,,,,,,,,,,,,,,,1102_t2,002,2,1,2022_Mar_16_1625,task_complete_blocked_LC_updated,2021.2.3,238.8932553537909,
,,,X,1,,,,,,,,,,,,,,,,,,,,,,,,,,,,,,,,,,,9,1,19,0,,,,,,,,,,,,,,,,,,,,,,,,,,,,,,,,,,,,,,,,,,,,,,,,,,,,,,,,,,,,,,,,,,,,,,,,,,,,,,,,,,,1197.993351400015,1198.9458973000292,1,1,0.41302259999793023,1197.993351400015,1198.9458973000292,1198.941674200003,None,,,,,,,,,,,,,,,,,,,,,,,,,,,,,,,1102_t2,002,2,1,2022_Mar_16_1625,task_complete_blocked_LC_updated,2021.2.3,238.8932553537909,
,,,O,2,,,,,,,,,,,,,,,,,,,,,,,,,,,,,,,,,,,10,0,20,1,,,,,,,,,,,,,,,,,,,,,,,,,,,,,,,,,,,,,,,,,,,,,,,,,,,,,,,,,,,,,,,,,,,,,,,,,,,,,,,,,,,1198.9924812000245,1199.9455750000197,2,1,0.366280100075528,1198.9924812000245,1199.9455750000197,1199.9420075999806,None,,,,,,,,,,,,,,,,,,,,,,,,,,,,,,,1102_t2,002,2,1,2022_Mar_16_1625,task_complete_blocked_LC_updated,2021.2.3,238.8932553537909,
,,,X,1,,,,,,,,,,,,,,,,,,,,,,,,,,,,,,,,,,,10,1,21,0,,,,,,,,,,,,,,,,,,,,,,,,,,,,,,,,,,,,,,,,,,,,,,,,,,,,,,,,,,,,,,,,,,,,,,,,,,,,,,,,,,,1199.9938371999888,1200.9436591999838,1,1,0.3535108999349177,1199.9938371999888,1200.9436591999838,1200.9403520000633,None,,,,,,,,,,,,,,,,,,,,,,,,,,,,,,,1102_t2,002,2,1,2022_Mar_16_1625,task_complete_blocked_LC_updated,2021.2.3,238.8932553537909,
,,,X,1,,,,,,,,,,,,,,,,,,,,,,,,,,,,,,,,,,,11,0,22,0,,,,,,,,,,,,,,,,,,,,,,,,,,,,,,,,,,,,,,,,,,,,,,,,,,,,,,,,,,,,,,,,,,,,,,,,,,,,,,,,,,,1200.9933636999922,1201.9428076000186,1,1,0.3790805001044646,1200.9933636999922,1201.9428076000186,1201.9399112999672,None,,,,,,,,,,,,,,,,,,,,,,,,,,,,,,,1102_t2,002,2,1,2022_Mar_16_1625,task_complete_blocked_LC_updated,2021.2.3,238.8932553537909,
,,,O,2,,,,,,,,,,,,,,,,,,,,,,,,,,,,,,,,,,,11,1,23,1,,,,,,,,,,,,,,,,,,,,,,,,,,,,,,,,,,,,,,,,,,,,,,,,,,,,,,,,,,,,,,,,,,,,,,,,,,,,,,,,,,,1201.9924511000281,1202.9438343000365,2,1,0.37886350008193403,1201.9924511000281,1202.9438343000365,1202.9406241000397,None,,,,,,,,,,,,,,,,,,,,,,,,,,,,,,,1102_t2,002,2,1,2022_Mar_16_1625,task_complete_blocked_LC_updated,2021.2.3,238.8932553537909,
,,,X,1,,,,,,,,,,,,,,,,,,,,,,,,,,,,,,,,,,,12,0,24,0,,,,,,,,,,,,,,,,,,,,,,,,,,,,,,,,,,,,,,,,,,,,,,,,,,,,,,,,,,,,,,,,,,,,,,,,,,,,,,,,,,,1202.9924867000664,1203.9433308000444,1,1,0.43783589999657124,1202.9924867000664,1203.9433308000444,1203.9401288999943,None,,,,,,,,,,,,,,,,,,,,,,,,,,,,,,,1102_t2,002,2,1,2022_Mar_16_1625,task_complete_blocked_LC_updated,2021.2.3,238.8932553537909,
,,,O,2,,,,,,,,,,,,,,,,,,,,,,,,,,,,,,,,,,,12,1,25,1,,,,,,,,,,,,,,,,,,,,,,,,,,,,,,,,,,,,,,,,,,,,,,,,,,,,,,,,,,,,,,,,,,,,,,,,,,,,,,,,,,,1203.9924487000098,1204.942631999962,2,1,0.6160859999945387,1203.9924487000098,1204.942631999962,1204.938561600051,None,,,,,,,,,,,,,,,,,,,,,,,,,,,,,,,1102_t2,002,2,1,2022_Mar_16_1625,task_complete_blocked_LC_updated,2021.2.3,238.8932553537909,
,,,O,2,,,,,,,,,,,,,,,,,,,,,,,,,,,,,,,,,,,13,0,26,1,,,,,,,,,,,,,,,,,,,,,,,,,,,,,,,,,,,,,,,,,,,,,,,,,,,,,,,,,,,,,,,,,,,,,,,,,,,,,,,,,,,1204.9914725000272,1205.939971899963,2,1,0.523128200089559,1204.9914725000272,1205.939971899963,1205.9364648000337,None,,,,,,,,,,,,,,,,,,,,,,,,,,,,,,,1102_t2,002,2,1,2022_Mar_16_1625,task_complete_blocked_LC_updated,2021.2.3,238.8932553537909,
,,,X,1,,,,,,,,,,,,,,,,,,,,,,,,,,,,,,,,,,,13,1,27,0,,,,,,,,,,,,,,,,,,,,,,,,,,,,,,,,,,,,,,,,,,,,,,,,,,,,,,,,,,,,,,,,,,,,,,,,,,,,,,,,,,,1205.9918762999587,1206.9432029000018,1,1,0.4379526999546215,1205.9918762999587,1206.9432029000018,1206.9406085000373,1205.9918762999587,,,,,,,,,,,,,,,,,,,,,,,,,,,,,,,1102_t2,002,2,1,2022_Mar_16_1625,task_complete_blocked_LC_updated,2021.2.3,238.8932553537909,
,,,X,1,,,,,,,,,,,,,,,,,,,,,,,,,,,,,,,,,,,14,0,28,0,,,,,,,,,,,,,,,,,,,,,,,,,,,,,,,,,,,,,,,,,,,,,,,,,,,,,,,,,,,,,,,,,,,,,,,,,,,,,,,,,,,1206.9968633999815,1207.948777899961,1,1,0.34931379999034107,1206.9968633999815,1207.948777899961,1207.941750500002,None,,,,,,,,,,,,,,,,,,,,,,,,,,,,,,,1102_t2,002,2,1,2022_Mar_16_1625,task_complete_blocked_LC_updated,2021.2.3,238.8932553537909,
,,,O,2,,,,,,,,,,,,,,,,,,,,,,,,,,,,,,,,,,,14,1,29,1,,,,,,,,,,,,,,,,,,,,,,,,,,,,,,,,,,,,,,,,,,,,,,,,,,,,,,,,,,,,,,,,,,,,,,,,,,,,,,,,,,,1207.992554299999,1208.941494400031,2,1,0.563136100070551,1207.992554299999,1208.941494400031,1208.9388665000442,None,,,,,,,,,,,,,,,,,,,,,,,,,,,,,,,1102_t2,002,2,1,2022_Mar_16_1625,task_complete_blocked_LC_updated,2021.2.3,238.8932553537909,
,,,O,2,,,,,,,,,,,,,,,,,,,,,,,,,,,,,,,,,,,15,0,30,1,,,,,,,,,,,,,,,,,,,,,,,,,,,,,,,,,,,,,,,,,,,,,,,,,,,,,,,,,,,,,,,,,,,,,,,,,,,,,,,,,,,1208.9913091000635,1209.942478199955,2,1,0.5402227999875322,1208.9913091000635,1209.942478199955,1209.9393220000202,None,,,,,,,,,,,,,,,,,,,,,,,,,,,,,,,1102_t2,002,2,1,2022_Mar_16_1625,task_complete_blocked_LC_updated,2021.2.3,238.8932553537909,
,,,X,1,,,,,,,,,,,,,,,,,,,,,,,,,,,,,,,,,,,15,1,31,0,,,,,,,,,,,,,,,,,,,,,,,,,,,,,,,,,,,,,,,,,,,,,,,,,,,,,,,,,,,,,,,,,,,,,,,,,,,,,,,,,,,1209.992873399984,1210.9437893000431,1,1,0.35034759994596243,1209.992873399984,1210.9437893000431,1210.9400248000165,None,,,,,,,,,,,,,,,,,,,,,,,,,,,,,,,1102_t2,002,2,1,2022_Mar_16_1625,task_complete_blocked_LC_updated,2021.2.3,238.8932553537909,
