stimImg,taskType,audTrial,letter,correctResponse,familiarCorrect,sourceCorrect,encode_trials1.thisRepN,encode_trials1.thisTrialN,encode_trials1.thisN,encode_trials1.thisIndex,encode_trials2.thisRepN,encode_trials2.thisTrialN,encode_trials2.thisN,encode_trials2.thisIndex,distractor.thisRepN,distractor.thisTrialN,distractor.thisN,distractor.thisIndex,encode_trials3.thisRepN,encode_trials3.thisTrialN,encode_trials3.thisN,encode_trials3.thisIndex,encode_trials4.thisRepN,encode_trials4.thisTrialN,encode_trials4.thisN,encode_trials4.thisIndex,distractor_2.thisRepN,distractor_2.thisTrialN,distractor_2.thisN,distractor_2.thisIndex,encode_trials5.thisRepN,encode_trials5.thisTrialN,encode_trials5.thisN,encode_trials5.thisIndex,encode_trials6.thisRepN,encode_trials6.thisTrialN,encode_trials6.thisN,encode_trials6.thisIndex,distractor3.thisRepN,distractor3.thisTrialN,distractor3.thisN,distractor3.thisIndex,encode_trials7.thisRepN,encode_trials7.thisTrialN,encode_trials7.thisN,encode_trials7.thisIndex,encode_trials8.thisRepN,encode_trials8.thisTrialN,encode_trials8.thisN,encode_trials8.thisIndex,distractor4.thisRepN,distractor4.thisTrialN,distractor4.thisN,distractor4.thisIndex,retrieval_trials1.thisRepN,retrieval_trials1.thisTrialN,retrieval_trials1.thisN,retrieval_trials1.thisIndex,retrieval_trials2.thisRepN,retrieval_trials2.thisTrialN,retrieval_trials2.thisN,retrieval_trials2.thisIndex,retrieval_trials3.thisRepN,retrieval_trials3.thisTrialN,retrieval_trials3.thisN,retrieval_trials3.thisIndex,retrieval_trials4.thisRepN,retrieval_trials4.thisTrialN,retrieval_trials4.thisN,retrieval_trials4.thisIndex,button_check_1.started,button_check_1.stopped,button_check_resp_1.keys,button_check_resp_1.rt,button_check_resp_1.started,button_check_resp_1.stopped,text_2.started,text_2.stopped,key_resp_3.keys,key_resp_3.rt,key_resp_3.started,key_resp_3.stopped,text_3.started,text_3.stopped,key_resp_4.keys,key_resp_4.rt,key_resp_4.started,key_resp_4.stopped,text_4.started,text_4.stopped,key_resp_5.keys,key_resp_5.rt,key_resp_5.started,key_resp_5.stopped,wait_text.started,wait_text.stopped,scanner_pulse.keys,scanner_pulse.rt,scanner_pulse.started,scanner_pulse.stopped,Trial_cue_onset,instruction.started,instruction.stopped,image_3.started,image_3.stopped,in_.started,in_.stopped,source_cue.started,source_cue.stopped,fixation.started,fixation.stopped,Response_cue_onset,rating.started,rating.stopped,text.started,text.stopped,rating_resp.keys,rating_resp.rt,rating_resp.started,rating_resp.stopped,text_16.started,text_16.stopped,instruc.started,instruc.stopped,distractor_task.started,distractor_task.stopped,distractor_task_resp.keys,distractor_task_resp.corr,distractor_task_resp.rt,distractor_task_resp.started,distractor_task_resp.stopped,flicker.started,flicker.stopped,end_screen.started,end_screen.stopped,spacebar_press.keys,spacebar_press.rt,spacebar_press.started,spacebar_press.stopped,one_moment.started,one_moment.stopped,Trial_familiarity_onset,item_rec.started,item_rec.stopped,image_4.started,image_4.stopped,item_rec_guide.started,item_rec_guide.stopped,item_rec_resp.keys,item_rec_resp.corr,item_rec_resp.rt,item_rec_resp.started,item_rec_resp.stopped,Trial_source_onset,source_rec.started,source_rec.stopped,source_rec_resp.keys,source_rec_resp.corr,source_rec_resp.rt,source_rec_resp.started,source_rec_resp.stopped,text_14.started,text_14.stopped,participant,session,group,university,date,expName,psychopyVersion,frameRate,
,,,,,,,,,,,,,,,,,,,,,,,,,,,,,,,,,,,,,,,,,,,,,,,,,,,,,,,,,,,,,,,,,,,,,,,944.9287076999899,None,1,228.20464800018817,944.9287076999899,None,,,,,,,,,,,,,,,,,,,,,,,,,,,,,,,,,,,,,,,,,,,,,,,,,,,,,,,,,,,,,,,,,,,,,,,,,,,,,,,,,,,,,,,,1101,002,1,UA,2022_Feb_18_0951,task_complete_blocked_LC_updated,2021.2.3,238.4040283538096,
,,,,,,,,,,,,,,,,,,,,,,,,,,,,,,,,,,,,,,,,,,,,,,,,,,,,,,,,,,,,,,,,,,,,,,,,,,,,,1173.1437450000085,None,2,0.7696026999037713,1173.1437450000085,None,,,,,,,,,,,,,,,,,,,,,,,,,,,,,,,,,,,,,,,,,,,,,,,,,,,,,,,,,,,,,,,,,,,,,,,,,,,,,,,,,,1101,002,1,UA,2022_Feb_18_0951,task_complete_blocked_LC_updated,2021.2.3,238.4040283538096,
,,,,,,,,,,,,,,,,,,,,,,,,,,,,,,,,,,,,,,,,,,,,,,,,,,,,,,,,,,,,,,,,,,,,,,,,,,,,,,,,,,,1173.9233629999217,None,3,0.47929910011589527,1173.9233629999217,None,,,,,,,,,,,,,,,,,,,,,,,,,,,,,,,,,,,,,,,,,,,,,,,,,,,,,,,,,,,,,,,,,,,,,,,,,,,,1101,002,1,UA,2022_Feb_18_0951,task_complete_blocked_LC_updated,2021.2.3,238.4040283538096,
,,,,,,,,,,,,,,,,,,,,,,,,,,,,,,,,,,,,,,,,,,,,,,,,,,,,,,,,,,,,,,,,,,,,,,,,,,,,,,,,,,,,,,,,,1174.4138356000185,None,4,0.4294324000366032,1174.4138356000185,None,,,,,,,,,,,,,,,,,,,,,,,,,,,,,,,,,,,,,,,,,,,,,,,,,,,,,,,,,,,,,,,,,,,,,,1101,002,1,UA,2022_Feb_18_0951,task_complete_blocked_LC_updated,2021.2.3,238.4040283538096,
,,,,,,,,,,,,,,,,,,,,,,,,,,,,,,,,,,,,,,,,,,,,,,,,,,,,,,,,,,,,,,,,,,,,,,,,,,,,,,,,,,,,,,,,,,,,,,,1174.850261699874,None,5,126.94705839990638,1174.850261699874,None,,,,,,,,,,,,,,,,,,,,,,,,,,,,,,,,,,,,,,,,,,,,,,,,,,,,,,,,,,,,,,,,1101,002,1,UA,2022_Feb_18_0951,task_complete_blocked_LC_updated,2021.2.3,238.4040283538096,
stimulus_images/Abeaver.jpg,SPACE,0,,,,,0,0,0,5,,,,,,,,,,,,,,,,,,,,,,,,,,,,,,,,,,,,,,,,,,,,,,,,,,,,,,,,,,,,,,,,,,,,,,,,,,,,,,,,,,,,,,,,,,,4.300149157643318e-06,1301.8341543998104,1303.8345144998748,1301.8341543998104,1303.8345144998748,1302.8263633998577,1303.826400199905,1302.8263633998577,1303.826400199905,1303.826400199905,None,5.983289900003001,1307.8064804000314,None,1307.8064804000314,None,4,1.5851968000642955,1307.8064804000314,None,1313.8030922999606,None,,,,,,,,,,,,,,,,,,,,,,,,,,,,,,,,,,,,,,,,,,1101,002,1,UA,2022_Feb_18_0951,task_complete_blocked_LC_updated,2021.2.3,238.4040283538096,
stimulus_images/ACANDLE30.jpg,SPACE,0,,,,,0,1,1,7,,,,,,,,,,,,,,,,,,,,,,,,,,,,,,,,,,,,,,,,,,,,,,,,,,,,,,,,,,,,,,,,,,,,,,,,,,,,,,,,,,,,,,,,,,,12.984403500100598,1314.8184299999848,1316.8180465998594,1314.8184299999848,1316.8180465998594,1315.8141003998462,1316.81487319991,1315.8141003998462,1316.81487319991,1316.81487319991,None,18.98629580019042,1320.8094803998247,None,1320.8094803998247,None,3,1.8122175999451429,1320.8094803998247,None,1326.8126927998383,None,,,,,,,,,,,,,,,,,,,,,,,,,,,,,,,,,,,,,,,,,,1101,002,1,UA,2022_Feb_18_0951,task_complete_blocked_LC_updated,2021.2.3,238.4040283538096,
stimulus_images/Aammonitefo14.jpg,SPACE,1,,,,,0,2,2,2,,,,,,,,,,,,,,,,,,,,,,,,,,,,,,,,,,,,,,,,,,,,,,,,,,,,,,,,,,,,,,,,,,,,,,,,,,,,,,,,,,,,,,,,,,,25.99245150014758,1327.8253007000312,1329.8252653998788,1327.8253007000312,1329.8252653998788,1328.8177831999492,1329.8214012000244,1328.8177831999492,1329.8214012000244,1329.8214012000244,None,31.994961900170892,1333.8185778998304,None,1333.8185778998304,None,2,1.4857843001373112,1333.8185778998304,None,1339.8186802000273,None,,,,,,,,,,,,,,,,,,,,,,,,,,,,,,,,,,,,,,,,,,1101,002,1,UA,2022_Feb_18_0951,task_complete_blocked_LC_updated,2021.2.3,238.4040283538096,
stimulus_images/Abottleofbat2.jpg,SPACE,1,,,,,0,3,3,6,,,,,,,,,,,,,,,,,,,,,,,,,,,,,,,,,,,,,,,,,,,,,,,,,,,,,,,,,,,,,,,,,,,,,,,,,,,,,,,,,,,,,,,,,,,39.99627950019203,1341.833532199962,1343.8345082998276,1341.833532199962,1343.8345082998276,1342.8315069000237,1343.8302425998263,1342.8315069000237,1343.8302425998263,1343.8302425998263,None,45.99973680009134,1347.823066300014,None,1347.823066300014,None,3,2.007662800140679,1347.823066300014,None,1353.8200246000197,None,,,,,,,,,,,,,,,,,,,,,,,,,,,,,,,,,,,,,,,,,,1101,002,1,UA,2022_Feb_18_0951,task_complete_blocked_LC_updated,2021.2.3,238.4040283538096,
stimulus_images/ADRYWOOD.jpg,SPACE,0,,,,,0,4,4,9,,,,,,,,,,,,,,,,,,,,,,,,,,,,,,,,,,,,,,,,,,,,,,,,,,,,,,,,,,,,,,,,,,,,,,,,,,,,,,,,,,,,,,,,,,,55.00062860012986,1356.8336445998866,1358.8338994998485,1356.8336445998866,1358.8338994998485,1357.8272839998826,1358.829081499949,1357.8272839998826,1358.829081499949,1358.829081499949,None,61.003620400093496,1362.8266525999643,None,1362.8266525999643,None,1,0.721655499888584,1362.8266525999643,None,1368.8289099999238,None,,,,,,,,,,,,,,,,,,,,,,,,,,,,,,,,,,,,,,,,,,1101,002,1,UA,2022_Feb_18_0951,task_complete_blocked_LC_updated,2021.2.3,238.4040283538096,
stimulus_images/A56THUND4.jpg,SPACE,0,,,,,0,5,5,1,,,,,,,,,,,,,,,,,,,,,,,,,,,,,,,,,,,,,,,,,,,,,,,,,,,,,,,,,,,,,,,,,,,,,,,,,,,,,,,,,,,,,,,,,,,70.00734820007347,1371.8354092999361,1373.837486699922,1371.8354092999361,1373.837486699922,1372.8310213999357,1373.8320684998762,1372.8310213999357,1373.8320684998762,1373.8320684998762,None,76.00822220020927,1377.8317852998152,None,1377.8317852998152,None,1,1.0682368001434952,1377.8317852998152,None,1383.8329482998233,None,,,,,,,,,,,,,,,,,,,,,,,,,,,,,,,,,,,,,,,,,,1101,002,1,UA,2022_Feb_18_0951,task_complete_blocked_LC_updated,2021.2.3,238.4040283538096,
stimulus_images/A_coin.jpg,SPACE,0,,,,,0,6,6,0,,,,,,,,,,,,,,,,,,,,,,,,,,,,,,,,,,,,,,,,,,,,,,,,,,,,,,,,,,,,,,,,,,,,,,,,,,,,,,,,,,,,,,,,,,,83.01378970011137,1384.8416826999746,1386.8450173998717,1384.8416826999746,1386.8450173998717,1385.8364780999254,1386.8407676999923,1385.8364780999254,1386.8407676999923,1386.8407676999923,None,89.01625790004618,1390.840317999944,None,1390.840317999944,None,4,0.7512890000361949,1390.840317999944,None,1396.8419325998984,None,,,,,,,,,,,,,,,,,,,,,,,,,,,,,,,,,,,,,,,,,,1101,002,1,UA,2022_Feb_18_0951,task_complete_blocked_LC_updated,2021.2.3,238.4040283538096,
stimulus_images/ABALLBEAR.jpg,SPACE,0,,,,,0,7,7,4,,,,,,,,,,,,,,,,,,,,,,,,,,,,,,,,,,,,,,,,,,,,,,,,,,,,,,,,,,,,,,,,,,,,,,,,,,,,,,,,,,,,,,,,,,,97.02120710001327,1398.8548712998163,1400.855542199919,1398.8548712998163,1400.855542199919,1399.853452499956,1400.8520334998611,1399.853452499956,1400.8520334998611,1400.8520334998611,None,103.02437500003725,1404.8476964000147,None,1404.8476964000147,None,4,1.2880448999349028,1404.8476964000147,None,1410.852068200009,None,,,,,,,,,,,,,,,,,,,,,,,,,,,,,,,,,,,,,,,,,,1101,002,1,UA,2022_Feb_18_0951,task_complete_blocked_LC_updated,2021.2.3,238.4040283538096,
stimulus_images/Acocktailumb4.jpg,SPACE,0,,,,,0,8,8,8,,,,,,,,,,,,,,,,,,,,,,,,,,,,,,,,,,,,,,,,,,,,,,,,,,,,,,,,,,,,,,,,,,,,,,,,,,,,,,,,,,,,,,,,,,,111.03103050007485,1412.8645982998423,1414.8650727998465,1412.8645982998423,1414.8650727998465,1413.86149439984,1414.8619794000406,1413.86149439984,1414.8619794000406,1414.8619794000406,None,117.03328390000388,1418.8560072998516,None,1418.8560072998516,None,2,0.7446361999027431,1418.8560072998516,None,1424.8592293998227,None,,,,,,,,,,,,,,,,,,,,,,,,,,,,,,,,,,,,,,,,,,1101,002,1,UA,2022_Feb_18_0951,task_complete_blocked_LC_updated,2021.2.3,238.4040283538096,
stimulus_images/AARCCHAR2.jpg,SPACE,0,,,,,0,9,9,3,,,,,,,,,,,,,,,,,,,,,,,,,,,,,,,,,,,,,,,,,,,,,,,,,,,,,,,,,,,,,,,,,,,,,,,,,,,,,,,,,,,,,,,,,,,126.03873970010318,1427.8722534999251,1429.8738857998978,1427.8722534999251,1429.8738857998978,1428.8701402998995,1429.8738857998978,1428.8701402998995,1429.8738857998978,1429.8708384998608,None,132.0410977001302,1433.868157699937,None,1433.868157699937,None,1,1.0919481001328677,1433.868157699937,None,1439.862458099844,None,,,,,,,,,,,,,,,,,,,,,,,,,,,,,,,,,,,,,,,,,,1101,002,1,UA,2022_Feb_18_0951,task_complete_blocked_LC_updated,2021.2.3,238.4040283538096,
stimulus_images/Astereo30.jpg,SPACE,1,,,,,,,,,0,0,0,4,,,,,,,,,,,,,,,,,,,,,,,,,,,,,,,,,,,,,,,,,,,,,,,,,,,,,,,,,,,,,,,,,,,,,,,,,,,,,,,,,,,,,,,140.04947710013948,1441.8834930998273,1443.892738000024,1441.8834930998273,1443.892738000024,1442.8768088999204,1443.886111299973,1442.8768088999204,1443.886111299973,1443.886111299973,None,146.04566640011035,1447.8696486998815,None,1447.8696486998815,None,2,0.4389558001421392,1447.8696486998815,None,1453.870332899969,None,,,,,,,,,,,,,,,,,,,,,,,,,,,,,,,,,,,,,,,,,,1101,002,1,UA,2022_Feb_18_0951,task_complete_blocked_LC_updated,2021.2.3,238.4040283538096,
stimulus_images/AABSTRACT.jpg,SPACE,1,,,,,,,,,0,1,1,8,,,,,,,,,,,,,,,,,,,,,,,,,,,,,,,,,,,,,,,,,,,,,,,,,,,,,,,,,,,,,,,,,,,,,,,,,,,,,,,,,,,,,,,154.05131050013006,1455.8781681999099,1457.878468999872,1455.8781681999099,1457.878468999872,1456.869730999926,1457.8710695998743,1456.869730999926,1457.8710695998743,1457.8710695998743,None,160.05175730003975,1461.8747202998493,None,1461.8747202998493,None,3,2.46564339986071,1461.8747202998493,None,1467.8743314999156,None,,,,,,,,,,,,,,,,,,,,,,,,,,,,,,,,,,,,,,,,,,1101,002,1,UA,2022_Feb_18_0951,task_complete_blocked_LC_updated,2021.2.3,238.4040283538096,
stimulus_images/AHIGCHAIR.jpg,SPACE,0,,,,,,,,,0,2,2,1,,,,,,,,,,,,,,,,,,,,,,,,,,,,,,,,,,,,,,,,,,,,,,,,,,,,,,,,,,,,,,,,,,,,,,,,,,,,,,,,,,,,,,,167.05552440020256,1468.8890136999544,1470.898840899812,1468.8890136999544,1470.898840899812,1469.8858405998908,1470.8926497998182,1469.8858405998908,1470.8926497998182,1470.8926497998182,None,173.0581612000242,1474.8817552998662,None,1474.8817552998662,None,4,1.4568445000331849,1474.8817552998662,None,1480.8812702000141,None,,,,,,,,,,,,,,,,,,,,,,,,,,,,,,,,,,,,,,,,,,1101,002,1,UA,2022_Feb_18_0951,task_complete_blocked_LC_updated,2021.2.3,238.4040283538096,
stimulus_images/AMUSISTA2.jpg,SPACE,0,,,,,,,,,0,3,3,2,,,,,,,,,,,,,,,,,,,,,,,,,,,,,,,,,,,,,,,,,,,,,,,,,,,,,,,,,,,,,,,,,,,,,,,,,,,,,,,,,,,,,,,181.0592936000321,1482.886969299987,1484.887868899852,1482.886969299987,1484.887868899852,1483.882507900009,1484.887868899852,1483.882507900009,1484.887868899852,1484.8842203998938,None,187.06236740015447,1488.8853000998497,None,1488.8853000998497,None,1,0.5360614999663085,1488.8853000998497,None,1494.8843830998521,None,,,,,,,,,,,,,,,,,,,,,,,,,,,,,,,,,,,,,,,,,,1101,002,1,UA,2022_Feb_18_0951,task_complete_blocked_LC_updated,2021.2.3,238.4040283538096,
stimulus_images/Aribbon21.jpg,SPACE,0,,,,,,,,,0,4,4,3,,,,,,,,,,,,,,,,,,,,,,,,,,,,,,,,,,,,,,,,,,,,,,,,,,,,,,,,,,,,,,,,,,,,,,,,,,,,,,,,,,,,,,,194.0646449001506,1495.9019065999892,1497.9023735998198,1495.9019065999892,1497.9023735998198,1496.8952195998281,1497.8955065000337,1496.8952195998281,1497.8955065000337,1497.8955065000337,None,200.06673680013046,1501.8899472998455,None,1501.8899472998455,None,2,0.6826030998490751,1501.8899472998455,None,1507.8899423000403,None,,,,,,,,,,,,,,,,,,,,,,,,,,,,,,,,,,,,,,,,,,1101,002,1,UA,2022_Feb_18_0951,task_complete_blocked_LC_updated,2021.2.3,238.4040283538096,
stimulus_images/Aancientston3.jpg,SPACE,0,,,,,,,,,0,5,5,9,,,,,,,,,,,,,,,,,,,,,,,,,,,,,,,,,,,,,,,,,,,,,,,,,,,,,,,,,,,,,,,,,,,,,,,,,,,,,,,,,,,,,,,208.06832600012422,1509.901348899817,1511.9029115999583,1509.901348899817,1511.9029115999583,1510.902219499927,1511.9029115999583,1510.902219499927,1511.9029115999583,1511.8999107999261,None,214.070903000189,1515.8939447000157,None,1515.8939447000157,None,2,0.5017041000537574,1515.8939447000157,None,1521.8931223999243,None,,,,,,,,,,,,,,,,,,,,,,,,,,,,,,,,,,,,,,,,,,1101,002,1,UA,2022_Feb_18_0951,task_complete_blocked_LC_updated,2021.2.3,238.4040283538096,
stimulus_images/AGLASSFL4.jpg,SPACE,1,,,,,,,,,0,6,6,0,,,,,,,,,,,,,,,,,,,,,,,,,,,,,,,,,,,,,,,,,,,,,,,,,,,,,,,,,,,,,,,,,,,,,,,,,,,,,,,,,,,,,,,221.07269680011086,1522.9064348998945,1524.905879799975,1522.9064348998945,1524.905879799975,1523.9041106000077,1524.905879799975,1523.9041106000077,1524.905879799975,1524.905879799975,None,227.07520590000786,1528.8982275000308,None,1528.8982275000308,None,3,0.643610600149259,1528.8982275000308,None,1534.8993758999277,None,,,,,,,,,,,,,,,,,,,,,,,,,,,,,,,,,,,,,,,,,,1101,002,1,UA,2022_Feb_18_0951,task_complete_blocked_LC_updated,2021.2.3,238.4040283538096,
stimulus_images/beanbagchair.jpg,SPACE,0,,,,,,,,,0,7,7,5,,,,,,,,,,,,,,,,,,,,,,,,,,,,,,,,,,,,,,,,,,,,,,,,,,,,,,,,,,,,,,,,,,,,,,,,,,,,,,,,,,,,,,,236.07729140017182,1537.9113229999784,1539.9106634999625,1537.9113229999784,1539.9106634999625,1538.907427399885,1539.9106634999625,1538.907427399885,1539.9106634999625,1539.9106634999625,None,242.08073630020954,1543.903970999876,None,1543.903970999876,None,4,1.191855899989605,1543.903970999876,None,1549.9005205999129,None,,,,,,,,,,,,,,,,,,,,,,,,,,,,,,,,,,,,,,,,,,1101,002,1,UA,2022_Feb_18_0951,task_complete_blocked_LC_updated,2021.2.3,238.4040283538096,
stimulus_images/A_flower.jpg,SPACE,0,,,,,,,,,0,8,8,7,,,,,,,,,,,,,,,,,,,,,,,,,,,,,,,,,,,,,,,,,,,,,,,,,,,,,,,,,,,,,,,,,,,,,,,,,,,,,,,,,,,,,,,251.08140190015547,1552.9077592999674,1554.908763699932,1552.9077592999674,1554.908763699932,1553.902521000011,1554.908763699932,1553.902521000011,1554.908763699932,1554.9050249999855,None,257.0839216001332,1558.9071863999125,None,1558.9071863999125,None,2,0.5942438000347465,1558.9071863999125,None,1564.9061916999053,None,,,,,,,,,,,,,,,,,,,,,,,,,,,,,,,,,,,,,,,,,,1101,002,1,UA,2022_Feb_18_0951,task_complete_blocked_LC_updated,2021.2.3,238.4040283538096,
stimulus_images/weddingdress.jpg,SPACE,0,,,,,,,,,0,9,9,6,,,,,,,,,,,,,,,,,,,,,,,,,,,,,,,,,,,,,,,,,,,,,,,,,,,,,,,,,,,,,,,,,,,,,,,,,,,,,,,,,,,,,,,266.0858395001851,1567.9124325998127,1569.9116427998524,1567.9124325998127,1569.9116427998524,1568.9080218998715,1569.9116427998524,1568.9080218998715,1569.9116427998524,1569.9085315000266,None,272.08796350006014,1573.9121164998505,None,1573.9121164998505,None,1,0.7874233000911772,1573.9121164998505,None,1579.9086970000062,None,,,,,,,,,,,,,,,,,,,,,,,,,,,,,,,,,,,,,,,,,,1101,002,1,UA,2022_Feb_18_0951,task_complete_blocked_LC_updated,2021.2.3,238.4040283538096,
,,,X,1,,,,,,,,,,,0,0,0,0,,,,,,,,,,,,,,,,,,,,,,,,,,,,,,,,,,,,,,,,,,,,,,,,,,,,,,,,,,,,,,,,,,,,,,,,,,,,,,,,,,,,,,,,,,,,,,,,,,,,,,,,,1581.917571599828,None,1584.925342099974,1585.8745849998668,1,1,0.7055595999117941,1584.925342099974,1585.8745849998668,1585.8713169998955,None,,,,,,,,,,,,,,,,,,,,,,,,,,,,,,,1101,002,1,UA,2022_Feb_18_0951,task_complete_blocked_LC_updated,2021.2.3,238.4040283538096,
,,,O,2,,,,,,,,,,,0,1,1,1,,,,,,,,,,,,,,,,,,,,,,,,,,,,,,,,,,,,,,,,,,,,,,,,,,,,,,,,,,,,,,,,,,,,,,,,,,,,,,,,,,,,,,,,,,,,,,,,,,,,,,,,,,,1585.9183643998113,1586.8705937999766,2,1,0.49302389984950423,1585.9183643998113,1586.8705937999766,1586.8677665998694,None,,,,,,,,,,,,,,,,,,,,,,,,,,,,,,,1101,002,1,UA,2022_Feb_18_0951,task_complete_blocked_LC_updated,2021.2.3,238.4040283538096,
,,,X,1,,,,,,,,,,,1,0,2,0,,,,,,,,,,,,,,,,,,,,,,,,,,,,,,,,,,,,,,,,,,,,,,,,,,,,,,,,,,,,,,,,,,,,,,,,,,,,,,,,,,,,,,,,,,,,,,,,,,,,,,,,,,,1586.9161924999207,1587.8740868999157,1,1,0.47641640016809106,1586.9161924999207,1587.8740868999157,1587.8659593998455,None,,,,,,,,,,,,,,,,,,,,,,,,,,,,,,,1101,002,1,UA,2022_Feb_18_0951,task_complete_blocked_LC_updated,2021.2.3,238.4040283538096,
,,,O,2,,,,,,,,,,,1,1,3,1,,,,,,,,,,,,,,,,,,,,,,,,,,,,,,,,,,,,,,,,,,,,,,,,,,,,,,,,,,,,,,,,,,,,,,,,,,,,,,,,,,,,,,,,,,,,,,,,,,,,,,,,,,,1587.9167955999728,1588.8680147000123,2,1,0.3205792000517249,1587.9167955999728,1588.8680147000123,1588.8651799999643,None,,,,,,,,,,,,,,,,,,,,,,,,,,,,,,,1101,002,1,UA,2022_Feb_18_0951,task_complete_blocked_LC_updated,2021.2.3,238.4040283538096,
,,,O,2,,,,,,,,,,,2,0,4,1,,,,,,,,,,,,,,,,,,,,,,,,,,,,,,,,,,,,,,,,,,,,,,,,,,,,,,,,,,,,,,,,,,,,,,,,,,,,,,,,,,,,,,,,,,,,,,,,,,,,,,,,,,,1588.9154174998403,1589.866696299985,2,1,0.34422839991748333,1588.9154174998403,1589.866696299985,1589.8637445999775,None,,,,,,,,,,,,,,,,,,,,,,,,,,,,,,,1101,002,1,UA,2022_Feb_18_0951,task_complete_blocked_LC_updated,2021.2.3,238.4040283538096,
,,,X,1,,,,,,,,,,,2,1,5,0,,,,,,,,,,,,,,,,,,,,,,,,,,,,,,,,,,,,,,,,,,,,,,,,,,,,,,,,,,,,,,,,,,,,,,,,,,,,,,,,,,,,,,,,,,,,,,,,,,,,,,,,,,,1589.9159991999622,1590.8694611999672,1,1,0.32759879995137453,1589.9159991999622,1590.8694611999672,1590.8606314999051,None,,,,,,,,,,,,,,,,,,,,,,,,,,,,,,,1101,002,1,UA,2022_Feb_18_0951,task_complete_blocked_LC_updated,2021.2.3,238.4040283538096,
,,,X,1,,,,,,,,,,,3,0,6,0,,,,,,,,,,,,,,,,,,,,,,,,,,,,,,,,,,,,,,,,,,,,,,,,,,,,,,,,,,,,,,,,,,,,,,,,,,,,,,,,,,,,,,,,,,,,,,,,,,,,,,,,,,,1590.9134841000196,1591.8640331998467,1,1,0.3781796998810023,1590.9134841000196,1591.8640331998467,1591.8598364999052,1590.9134841000196,,,,,,,,,,,,,,,,,,,,,,,,,,,,,,,1101,002,1,UA,2022_Feb_18_0951,task_complete_blocked_LC_updated,2021.2.3,238.4040283538096,
,,,O,2,,,,,,,,,,,3,1,7,1,,,,,,,,,,,,,,,,,,,,,,,,,,,,,,,,,,,,,,,,,,,,,,,,,,,,,,,,,,,,,,,,,,,,,,,,,,,,,,,,,,,,,,,,,,,,,,,,,,,,,,,,,,,1591.913625499932,1592.8645301999059,2,1,0.3687720999587327,1591.913625499932,1592.8645301999059,1592.861130299978,1591.913625499932,,,,,,,,,,,,,,,,,,,,,,,,,,,,,,,1101,002,1,UA,2022_Feb_18_0951,task_complete_blocked_LC_updated,2021.2.3,238.4040283538096,
,,,X,1,,,,,,,,,,,4,0,8,0,,,,,,,,,,,,,,,,,,,,,,,,,,,,,,,,,,,,,,,,,,,,,,,,,,,,,,,,,,,,,,,,,,,,,,,,,,,,,,,,,,,,,,,,,,,,,,,,,,,,,,,,,,,1592.9153020000085,1593.8631419998128,1,1,0.39037179993465543,1592.9153020000085,1593.8631419998128,1593.8631419998128,1592.9153020000085,,,,,,,,,,,,,,,,,,,,,,,,,,,,,,,1101,002,1,UA,2022_Feb_18_0951,task_complete_blocked_LC_updated,2021.2.3,238.4040283538096,
,,,O,2,,,,,,,,,,,4,1,9,1,,,,,,,,,,,,,,,,,,,,,,,,,,,,,,,,,,,,,,,,,,,,,,,,,,,,,,,,,,,,,,,,,,,,,,,,,,,,,,,,,,,,,,,,,,,,,,,,,,,,,,,,,,,1593.9163283999078,1594.8697724998929,2,1,0.5222198001574725,1593.9163283999078,1594.8697724998929,1594.865624499973,None,,,,,,,,,,,,,,,,,,,,,,,,,,,,,,,1101,002,1,UA,2022_Feb_18_0951,task_complete_blocked_LC_updated,2021.2.3,238.4040283538096,
,,,X,1,,,,,,,,,,,5,0,10,0,,,,,,,,,,,,,,,,,,,,,,,,,,,,,,,,,,,,,,,,,,,,,,,,,,,,,,,,,,,,,,,,,,,,,,,,,,,,,,,,,,,,,,,,,,,,,,,,,,,,,,,,,,,1594.9148607000243,1595.8699862000067,1,1,0.43381160008721054,1594.9148607000243,1595.8699862000067,1595.8623507998418,None,,,,,,,,,,,,,,,,,,,,,,,,,,,,,,,1101,002,1,UA,2022_Feb_18_0951,task_complete_blocked_LC_updated,2021.2.3,238.4040283538096,
,,,O,2,,,,,,,,,,,5,1,11,1,,,,,,,,,,,,,,,,,,,,,,,,,,,,,,,,,,,,,,,,,,,,,,,,,,,,,,,,,,,,,,,,,,,,,,,,,,,,,,,,,,,,,,,,,,,,,,,,,,,,,,,,,,,1595.914632699918,1596.8681279998273,2,1,0.6258284999057651,1595.914632699918,1596.8681279998273,1596.8649013999384,1595.914632699918,,,,,,,,,,,,,,,,,,,,,,,,,,,,,,,1101,002,1,UA,2022_Feb_18_0951,task_complete_blocked_LC_updated,2021.2.3,238.4040283538096,
,,,O,2,,,,,,,,,,,6,0,12,1,,,,,,,,,,,,,,,,,,,,,,,,,,,,,,,,,,,,,,,,,,,,,,,,,,,,,,,,,,,,,,,,,,,,,,,,,,,,,,,,,,,,,,,,,,,,,,,,,,,,,,,,,,,1596.915282699978,1597.8656371999532,2,1,0.5464109000749886,1596.915282699978,1597.8656371999532,1597.8617528998293,None,,,,,,,,,,,,,,,,,,,,,,,,,,,,,,,1101,002,1,UA,2022_Feb_18_0951,task_complete_blocked_LC_updated,2021.2.3,238.4040283538096,
,,,X,1,,,,,,,,,,,6,1,13,0,,,,,,,,,,,,,,,,,,,,,,,,,,,,,,,,,,,,,,,,,,,,,,,,,,,,,,,,,,,,,,,,,,,,,,,,,,,,,,,,,,,,,,,,,,,,,,,,,,,,,,,,,,,1597.9147560999263,1598.8670322999824,1,1,0.5505927999038249,1597.9147560999263,1598.8670322999824,1598.8633792998735,1597.9147560999263,,,,,,,,,,,,,,,,,,,,,,,,,,,,,,,1101,002,1,UA,2022_Feb_18_0951,task_complete_blocked_LC_updated,2021.2.3,238.4040283538096,
,,,O,2,,,,,,,,,,,7,0,14,1,,,,,,,,,,,,,,,,,,,,,,,,,,,,,,,,,,,,,,,,,,,,,,,,,,,,,,,,,,,,,,,,,,,,,,,,,,,,,,,,,,,,,,,,,,,,,,,,,,,,,,,,,,,1598.9176857999992,1599.8671003000345,2,1,0.5009949000086635,1598.9176857999992,1599.8671003000345,1599.8633812998887,None,,,,,,,,,,,,,,,,,,,,,,,,,,,,,,,1101,002,1,UA,2022_Feb_18_0951,task_complete_blocked_LC_updated,2021.2.3,238.4040283538096,
,,,X,1,,,,,,,,,,,7,1,15,0,,,,,,,,,,,,,,,,,,,,,,,,,,,,,,,,,,,,,,,,,,,,,,,,,,,,,,,,,,,,,,,,,,,,,,,,,,,,,,,,,,,,,,,,,,,,,,,,,,,,,,,,,,,1599.9171125998255,1600.8670220000204,1,1,0.6072829000186175,1599.9171125998255,1600.8670220000204,1600.8638102000114,None,,,,,,,,,,,,,,,,,,,,,,,,,,,,,,,1101,002,1,UA,2022_Feb_18_0951,task_complete_blocked_LC_updated,2021.2.3,238.4040283538096,
,,,X,1,,,,,,,,,,,8,0,16,0,,,,,,,,,,,,,,,,,,,,,,,,,,,,,,,,,,,,,,,,,,,,,,,,,,,,,,,,,,,,,,,,,,,,,,,,,,,,,,,,,,,,,,,,,,,,,,,,,,,,,,,,,,,1600.91673539998,1601.8699178998359,1,1,0.4433919000439346,1600.91673539998,1601.8699178998359,1601.8655511999968,None,,,,,,,,,,,,,,,,,,,,,,,,,,,,,,,1101,002,1,UA,2022_Feb_18_0951,task_complete_blocked_LC_updated,2021.2.3,238.4040283538096,
,,,O,2,,,,,,,,,,,8,1,17,1,,,,,,,,,,,,,,,,,,,,,,,,,,,,,,,,,,,,,,,,,,,,,,,,,,,,,,,,,,,,,,,,,,,,,,,,,,,,,,,,,,,,,,,,,,,,,,,,,,,,,,,,,,,1601.9162594999652,1602.8678540999535,2,1,0.3987549999728799,1601.9162594999652,1602.8678540999535,1602.864261499839,None,,,,,,,,,,,,,,,,,,,,,,,,,,,,,,,1101,002,1,UA,2022_Feb_18_0951,task_complete_blocked_LC_updated,2021.2.3,238.4040283538096,
,,,O,2,,,,,,,,,,,9,0,18,1,,,,,,,,,,,,,,,,,,,,,,,,,,,,,,,,,,,,,,,,,,,,,,,,,,,,,,,,,,,,,,,,,,,,,,,,,,,,,,,,,,,,,,,,,,,,,,,,,,,,,,,,,,,1602.9197777998634,1603.8772527999245,2,1,0.37904300005175173,1602.9197777998634,1603.8772527999245,1603.8703122998122,None,,,,,,,,,,,,,,,,,,,,,,,,,,,,,,,1101,002,1,UA,2022_Feb_18_0951,task_complete_blocked_LC_updated,2021.2.3,238.4040283538096,
,,,X,1,,,,,,,,,,,9,1,19,0,,,,,,,,,,,,,,,,,,,,,,,,,,,,,,,,,,,,,,,,,,,,,,,,,,,,,,,,,,,,,,,,,,,,,,,,,,,,,,,,,,,,,,,,,,,,,,,,,,,,,,,,,,,1603.9171911999583,1604.8679453998338,1,1,0.49242669995874166,1603.9171911999583,1604.8679453998338,1604.864589100005,None,,,,,,,,,,,,,,,,,,,,,,,,,,,,,,,1101,002,1,UA,2022_Feb_18_0951,task_complete_blocked_LC_updated,2021.2.3,238.4040283538096,
,,,O,2,,,,,,,,,,,10,0,20,1,,,,,,,,,,,,,,,,,,,,,,,,,,,,,,,,,,,,,,,,,,,,,,,,,,,,,,,,,,,,,,,,,,,,,,,,,,,,,,,,,,,,,,,,,,,,,,,,,,,,,,,,,,,1604.9175751998555,1605.8712314998265,2,1,0.48459869995713234,1604.9175751998555,1605.8712314998265,1605.862212399952,None,,,,,,,,,,,,,,,,,,,,,,,,,,,,,,,1101,002,1,UA,2022_Feb_18_0951,task_complete_blocked_LC_updated,2021.2.3,238.4040283538096,
,,,X,1,,,,,,,,,,,10,1,21,0,,,,,,,,,,,,,,,,,,,,,,,,,,,,,,,,,,,,,,,,,,,,,,,,,,,,,,,,,,,,,,,,,,,,,,,,,,,,,,,,,,,,,,,,,,,,,,,,,,,,,,,,,,,1605.914477000013,1606.8636772998143,1,1,0.4381785001605749,1605.914477000013,1606.8636772998143,1606.8636772998143,1605.914477000013,,,,,,,,,,,,,,,,,,,,,,,,,,,,,,,1101,002,1,UA,2022_Feb_18_0951,task_complete_blocked_LC_updated,2021.2.3,238.4040283538096,
,,,O,2,,,,,,,,,,,11,0,22,1,,,,,,,,,,,,,,,,,,,,,,,,,,,,,,,,,,,,,,,,,,,,,,,,,,,,,,,,,,,,,,,,,,,,,,,,,,,,,,,,,,,,,,,,,,,,,,,,,,,,,,,,,,,1606.9163108000066,1607.865954999812,2,1,0.4315267000347376,1606.9163108000066,1607.865954999812,1607.8626427999698,None,,,,,,,,,,,,,,,,,,,,,,,,,,,,,,,1101,002,1,UA,2022_Feb_18_0951,task_complete_blocked_LC_updated,2021.2.3,238.4040283538096,
,,,X,1,,,,,,,,,,,11,1,23,0,,,,,,,,,,,,,,,,,,,,,,,,,,,,,,,,,,,,,,,,,,,,,,,,,,,,,,,,,,,,,,,,,,,,,,,,,,,,,,,,,,,,,,,,,,,,,,,,,,,,,,,,,,,1607.9163561000023,1608.8664208999835,1,1,0.42557910014875233,1607.9163561000023,1608.8664208999835,1608.8640731000341,None,,,,,,,,,,,,,,,,,,,,,,,,,,,,,,,1101,002,1,UA,2022_Feb_18_0951,task_complete_blocked_LC_updated,2021.2.3,238.4040283538096,
,,,O,2,,,,,,,,,,,12,0,24,1,,,,,,,,,,,,,,,,,,,,,,,,,,,,,,,,,,,,,,,,,,,,,,,,,,,,,,,,,,,,,,,,,,,,,,,,,,,,,,,,,,,,,,,,,,,,,,,,,,,,,,,,,,,1608.9181927999016,1609.8717842998449,2,1,0.43629390001296997,1608.9181927999016,1609.8717842998449,1609.8676835999358,None,,,,,,,,,,,,,,,,,,,,,,,,,,,,,,,1101,002,1,UA,2022_Feb_18_0951,task_complete_blocked_LC_updated,2021.2.3,238.4040283538096,
,,,X,1,,,,,,,,,,,12,1,25,0,,,,,,,,,,,,,,,,,,,,,,,,,,,,,,,,,,,,,,,,,,,,,,,,,,,,,,,,,,,,,,,,,,,,,,,,,,,,,,,,,,,,,,,,,,,,,,,,,,,,,,,,,,,1609.91714029992,1610.86849049991,1,1,0.7761704998556525,1609.91714029992,1610.86849049991,1610.865230999887,None,,,,,,,,,,,,,,,,,,,,,,,,,,,,,,,1101,002,1,UA,2022_Feb_18_0951,task_complete_blocked_LC_updated,2021.2.3,238.4040283538096,
,,,O,2,,,,,,,,,,,13,0,26,1,,,,,,,,,,,,,,,,,,,,,,,,,,,,,,,,,,,,,,,,,,,,,,,,,,,,,,,,,,,,,,,,,,,,,,,,,,,,,,,,,,,,,,,,,,,,,,,,,,,,,,,,,,,1610.9207756998949,1611.869877899997,2,1,0.4136435000691563,1610.9207756998949,1611.869877899997,1611.869877899997,None,,,,,,,,,,,,,,,,,,,,,,,,,,,,,,,1101,002,1,UA,2022_Feb_18_0951,task_complete_blocked_LC_updated,2021.2.3,238.4040283538096,
,,,X,1,,,,,,,,,,,13,1,27,0,,,,,,,,,,,,,,,,,,,,,,,,,,,,,,,,,,,,,,,,,,,,,,,,,,,,,,,,,,,,,,,,,,,,,,,,,,,,,,,,,,,,,,,,,,,,,,,,,,,,,,,,,,,1611.9169274999294,1612.8670417999383,1,1,0.7971824000123888,1611.9169274999294,1612.8670417999383,1612.863729099976,None,,,,,,,,,,,,,,,,,,,,,,,,,,,,,,,1101,002,1,UA,2022_Feb_18_0951,task_complete_blocked_LC_updated,2021.2.3,238.4040283538096,
,,,O,2,,,,,,,,,,,14,0,28,1,,,,,,,,,,,,,,,,,,,,,,,,,,,,,,,,,,,,,,,,,,,,,,,,,,,,,,,,,,,,,,,,,,,,,,,,,,,,,,,,,,,,,,,,,,,,,,,,,,,,,,,,,,,1612.9166371999308,1613.8699521999806,2,1,0.8037451000418514,1612.9166371999308,1613.8699521999806,1613.8606087998487,None,,,,,,,,,,,,,,,,,,,,,,,,,,,,,,,1101,002,1,UA,2022_Feb_18_0951,task_complete_blocked_LC_updated,2021.2.3,238.4040283538096,
,,,X,1,,,,,,,,,,,14,1,29,0,,,,,,,,,,,,,,,,,,,,,,,,,,,,,,,,,,,,,,,,,,,,,,,,,,,,,,,,,,,,,,,,,,,,,,,,,,,,,,,,,,,,,,,,,,,,,,,,,,,,,,,,,,,1613.9148198999465,1614.8680101998616,1,1,0.7078275999519974,1613.9148198999465,1614.8680101998616,1614.8652645000257,1613.9148198999465,,,,,,,,,,,,,,,,,,,,,,,,,,,,,,,1101,002,1,UA,2022_Feb_18_0951,task_complete_blocked_LC_updated,2021.2.3,238.4040283538096,
,,,X,1,,,,,,,,,,,15,0,30,0,,,,,,,,,,,,,,,,,,,,,,,,,,,,,,,,,,,,,,,,,,,,,,,,,,,,,,,,,,,,,,,,,,,,,,,,,,,,,,,,,,,,,,,,,,,,,,,,,,,,,,,,,,,1614.9158626999706,1615.8666136998218,1,1,0.5877575997728854,1614.9158626999706,1615.8666136998218,1615.8631984998938,None,,,,,,,,,,,,,,,,,,,,,,,,,,,,,,,1101,002,1,UA,2022_Feb_18_0951,task_complete_blocked_LC_updated,2021.2.3,238.4040283538096,
,,,O,2,,,,,,,,,,,15,1,31,1,,,,,,,,,,,,,,,,,,,,,,,,,,,,,,,,,,,,,,,,,,,,,,,,,,,,,,,,,,,,,,,,,,,,,,,,,,,,,,,,,,,,,,,,,,,,,,,,,,,,,,,,,,,1615.9163326998241,1616.8645340998191,2,1,0.6293592001311481,1615.9163326998241,1616.8645340998191,1616.8645340998191,None,,,,,,,,,,,,,,,,,,,,,,,,,,,,,,,1101,002,1,UA,2022_Feb_18_0951,task_complete_blocked_LC_updated,2021.2.3,238.4040283538096,
,,,O,2,,,,,,,,,,,16,0,32,1,,,,,,,,,,,,,,,,,,,,,,,,,,,,,,,,,,,,,,,,,,,,,,,,,,,,,,,,,,,,,,,,,,,,,,,,,,,,,,,,,,,,,,,,,,,,,,,,,,,,,,,,,,,1616.9153378999326,1617.8703005998395,2,1,0.5770715000107884,1616.9153378999326,1617.8703005998395,1617.8620847000275,None,,,,,,,,,,,,,,,,,,,,,,,,,,,,,,,1101,002,1,UA,2022_Feb_18_0951,task_complete_blocked_LC_updated,2021.2.3,238.4040283538096,
,,,X,1,,,,,,,,,,,16,1,33,0,,,,,,,,,,,,,,,,,,,,,,,,,,,,,,,,,,,,,,,,,,,,,,,,,,,,,,,,,,,,,,,,,,,,,,,,,,,,,,,,,,,,,,,,,,,,,,,,,,,,,,,,,,,1617.9147320999764,1618.8702103998512,1,1,0.49503850005567074,1617.9147320999764,1618.8702103998512,1618.8625990999863,1617.9147320999764,,,,,,,,,,,,,,,,,,,,,,,,,,,,,,,1101,002,1,UA,2022_Feb_18_0951,task_complete_blocked_LC_updated,2021.2.3,238.4040283538096,
,,,X,1,,,,,,,,,,,17,0,34,0,,,,,,,,,,,,,,,,,,,,,,,,,,,,,,,,,,,,,,,,,,,,,,,,,,,,,,,,,,,,,,,,,,,,,,,,,,,,,,,,,,,,,,,,,,,,,,,,,,,,,,,,,,,1618.9137195998337,1619.8643741998821,1,1,0.5849463001359254,1618.9137195998337,1619.8643741998821,1619.860813099891,None,,,,,,,,,,,,,,,,,,,,,,,,,,,,,,,1101,002,1,UA,2022_Feb_18_0951,task_complete_blocked_LC_updated,2021.2.3,238.4040283538096,
,,,O,2,,,,,,,,,,,17,1,35,1,,,,,,,,,,,,,,,,,,,,,,,,,,,,,,,,,,,,,,,,,,,,,,,,,,,,,,,,,,,,,,,,,,,,,,,,,,,,,,,,,,,,,,,,,,,,,,,,,,,,,,,,,,,1619.914102499839,1620.867270699935,2,1,0.569257500115782,1619.914102499839,1620.867270699935,1620.8642816999927,1619.914102499839,,,,,,,,,,,,,,,,,,,,,,,,,,,,,,,1101,002,1,UA,2022_Feb_18_0951,task_complete_blocked_LC_updated,2021.2.3,238.4040283538096,
,,,O,2,,,,,,,,,,,18,0,36,1,,,,,,,,,,,,,,,,,,,,,,,,,,,,,,,,,,,,,,,,,,,,,,,,,,,,,,,,,,,,,,,,,,,,,,,,,,,,,,,,,,,,,,,,,,,,,,,,,,,,,,,,,,,1620.9156633999664,1621.8671756000258,2,1,0.5601166998967528,1620.9156633999664,1621.8671756000258,1621.863315799972,None,,,,,,,,,,,,,,,,,,,,,,,,,,,,,,,1101,002,1,UA,2022_Feb_18_0951,task_complete_blocked_LC_updated,2021.2.3,238.4040283538096,
,,,X,1,,,,,,,,,,,18,1,37,0,,,,,,,,,,,,,,,,,,,,,,,,,,,,,,,,,,,,,,,,,,,,,,,,,,,,,,,,,,,,,,,,,,,,,,,,,,,,,,,,,,,,,,,,,,,,,,,,,,,,,,,,,,,1621.9171339999884,1622.8703764998354,1,1,0.646309400210157,1621.9171339999884,1622.8703764998354,1622.8664235998876,None,,,,,,,,,,,,,,,,,,,,,,,,,,,,,,,1101,002,1,UA,2022_Feb_18_0951,task_complete_blocked_LC_updated,2021.2.3,238.4040283538096,
,,,O,2,,,,,,,,,,,19,0,38,1,,,,,,,,,,,,,,,,,,,,,,,,,,,,,,,,,,,,,,,,,,,,,,,,,,,,,,,,,,,,,,,,,,,,,,,,,,,,,,,,,,,,,,,,,,,,,,,,,,,,,,,,,,,1622.9181333000306,1623.8668505998794,2,1,0.5384949999861419,1622.9181333000306,1623.8668505998794,1623.8630709999707,None,,,,,,,,,,,,,,,,,,,,,,,,,,,,,,,1101,002,1,UA,2022_Feb_18_0951,task_complete_blocked_LC_updated,2021.2.3,238.4040283538096,
,,,X,1,,,,,,,,,,,19,1,39,0,,,,,,,,,,,,,,,,,,,,,,,,,,,,,,,,,,,,,,,,,,,,,,,,,,,,,,,,,,,,,,,,,,,,,,,,,,,,,,,,,,,,,,,,,,,,,,,,,,,,,,,,,,,1623.9172479000408,1624.865432499908,1,1,0.6632427999284118,1623.9172479000408,1624.865432499908,1624.862374899909,None,,,,,,,,,,,,,,,,,,,,,,,,,,,,,,,1101,002,1,UA,2022_Feb_18_0951,task_complete_blocked_LC_updated,2021.2.3,238.4040283538096,
,,,X,1,,,,,,,,,,,20,0,40,0,,,,,,,,,,,,,,,,,,,,,,,,,,,,,,,,,,,,,,,,,,,,,,,,,,,,,,,,,,,,,,,,,,,,,,,,,,,,,,,,,,,,,,,,,,,,,,,,,,,,,,,,,,,1624.916167799849,1625.8662284999155,1,1,0.47247979999519885,1624.916167799849,1625.8662284999155,1625.8628850998357,None,,,,,,,,,,,,,,,,,,,,,,,,,,,,,,,1101,002,1,UA,2022_Feb_18_0951,task_complete_blocked_LC_updated,2021.2.3,238.4040283538096,
,,,O,2,,,,,,,,,,,20,1,41,1,,,,,,,,,,,,,,,,,,,,,,,,,,,,,,,,,,,,,,,,,,,,,,,,,,,,,,,,,,,,,,,,,,,,,,,,,,,,,,,,,,,,,,,,,,,,,,,,,,,,,,,,,,,1625.9162857998163,1626.8662552000023,2,1,0.49845970002934337,1625.9162857998163,1626.8662552000023,1626.863529499853,None,,,,,,,,,,,,,,,,,,,,,,,,,,,,,,,1101,002,1,UA,2022_Feb_18_0951,task_complete_blocked_LC_updated,2021.2.3,238.4040283538096,
,,,X,1,,,,,,,,,,,21,0,42,0,,,,,,,,,,,,,,,,,,,,,,,,,,,,,,,,,,,,,,,,,,,,,,,,,,,,,,,,,,,,,,,,,,,,,,,,,,,,,,,,,,,,,,,,,,,,,,,,,,,,,,,,,,,1626.9207146000117,1627.874480899889,1,1,0.7209451000671834,1626.9207146000117,1627.874480899889,1627.8639548998326,None,,,,,,,,,,,,,,,,,,,,,,,,,,,,,,,1101,002,1,UA,2022_Feb_18_0951,task_complete_blocked_LC_updated,2021.2.3,238.4040283538096,
,,,O,2,,,,,,,,,,,21,1,43,1,,,,,,,,,,,,,,,,,,,,,,,,,,,,,,,,,,,,,,,,,,,,,,,,,,,,,,,,,,,,,,,,,,,,,,,,,,,,,,,,,,,,,,,,,,,,,,,,,,,,,,,,,,,1627.9206331998575,1628.8707975000143,2,1,0.4990458998363465,1627.9206331998575,1628.8707975000143,1628.8611094998196,None,,,,,,,,,,,,,,,,,,,,,,,,,,,,,,,1101,002,1,UA,2022_Feb_18_0951,task_complete_blocked_LC_updated,2021.2.3,238.4040283538096,
,,,O,2,,,,,,,,,,,22,0,44,1,,,,,,,,,,,,,,,,,,,,,,,,,,,,,,,,,,,,,,,,,,,,,,,,,,,,,,,,,,,,,,,,,,,,,,,,,,,,,,,,,,,,,,,,,,,,,,,,,,,,,,,,,,,1628.9194485999178,1629.873478599824,2,1,0.4580814999062568,1628.9194485999178,1629.873478599824,1629.873478599824,None,,,,,,,,,,,,,,,,,,,,,,,,,,,,,,,1101,002,1,UA,2022_Feb_18_0951,task_complete_blocked_LC_updated,2021.2.3,238.4040283538096,
,,,X,1,,,,,,,,,,,22,1,45,0,,,,,,,,,,,,,,,,,,,,,,,,,,,,,,,,,,,,,,,,,,,,,,,,,,,,,,,,,,,,,,,,,,,,,,,,,,,,,,,,,,,,,,,,,,,,,,,,,,,,,,,,,,,1629.918434199877,1630.869853100041,1,1,0.3703226998914033,1629.918434199877,1630.869853100041,1630.865848499816,None,,,,,,,,,,,,,,,,,,,,,,,,,,,,,,,1101,002,1,UA,2022_Feb_18_0951,task_complete_blocked_LC_updated,2021.2.3,238.4040283538096,
,,,O,2,,,,,,,,,,,23,0,46,1,,,,,,,,,,,,,,,,,,,,,,,,,,,,,,,,,,,,,,,,,,,,,,,,,,,,,,,,,,,,,,,,,,,,,,,,,,,,,,,,,,,,,,,,,,,,,,,,,,,,,,,,,,,1630.9172405998688,1631.867903899867,2,1,0.44211239996366203,1630.9172405998688,1631.867903899867,1631.8654830998275,None,,,,,,,,,,,,,,,,,,,,,,,,,,,,,,,1101,002,1,UA,2022_Feb_18_0951,task_complete_blocked_LC_updated,2021.2.3,238.4040283538096,
,,,X,1,,,,,,,,,,,23,1,47,0,,,,,,,,,,,,,,,,,,,,,,,,,,,,,,,,,,,,,,,,,,,,,,,,,,,,,,,,,,,,,,,,,,,,,,,,,,,,,,,,,,,,,,,,,,,,,,,,,,,,,,,,,,,1631.9170999999624,1632.8690243000165,1,1,0.5355112999677658,1631.9170999999624,1632.8690243000165,1632.8656806999352,None,,,,,,,,,,,,,,,,,,,,,,,,,,,,,,,1101,002,1,UA,2022_Feb_18_0951,task_complete_blocked_LC_updated,2021.2.3,238.4040283538096,
,,,O,2,,,,,,,,,,,24,0,48,1,,,,,,,,,,,,,,,,,,,,,,,,,,,,,,,,,,,,,,,,,,,,,,,,,,,,,,,,,,,,,,,,,,,,,,,,,,,,,,,,,,,,,,,,,,,,,,,,,,,,,,,,,,,1632.9206582999323,1633.8720285999589,2,1,0.6249445001594722,1632.9206582999323,1633.8720285999589,1633.8636702999938,None,,,,,,,,,,,,,,,,,,,,,,,,,,,,,,,1101,002,1,UA,2022_Feb_18_0951,task_complete_blocked_LC_updated,2021.2.3,238.4040283538096,
,,,X,1,,,,,,,,,,,24,1,49,0,,,,,,,,,,,,,,,,,,,,,,,,,,,,,,,,,,,,,,,,,,,,,,,,,,,,,,,,,,,,,,,,,,,,,,,,,,,,,,,,,,,,,,,,,,,,,,,,,,,,,,,,,,,1633.9172966999467,1634.8701204999816,1,1,0.4745324000250548,1633.9172966999467,1634.8701204999816,1634.8659224999137,None,,,,,,,,,,,,,,,,,,,,,,,,,,,,,,,1101,002,1,UA,2022_Feb_18_0951,task_complete_blocked_LC_updated,2021.2.3,238.4040283538096,
,,,X,1,,,,,,,,,,,25,0,50,0,,,,,,,,,,,,,,,,,,,,,,,,,,,,,,,,,,,,,,,,,,,,,,,,,,,,,,,,,,,,,,,,,,,,,,,,,,,,,,,,,,,,,,,,,,,,,,,,,,,,,,,,,,,1634.9163053999655,1635.8667603000067,1,1,0.4778494997881353,1634.9163053999655,1635.8667603000067,1635.8631686000153,None,,,,,,,,,,,,,,,,,,,,,,,,,,,,,,,1101,002,1,UA,2022_Feb_18_0951,task_complete_blocked_LC_updated,2021.2.3,238.4040283538096,
,,,O,2,,,,,,,,,,,25,1,51,1,,,,,,,,,,,,,,,,,,,,,,,,,,,,,,,,,,,,,,,,,,,,,,,,,,,,,,,,,,,,,,,,,,,,,,,,,,,,,,,,,,,,,,,,,,,,,,,,,,,,,,,,,,,1635.9164877999574,1636.8671303999145,2,1,0.5881145999301225,1635.9164877999574,1636.8671303999145,1636.864343999885,None,,,,,,,,,,,,,,,,,,,,,,,,,,,,,,,1101,002,1,UA,2022_Feb_18_0951,task_complete_blocked_LC_updated,2021.2.3,238.4040283538096,
,,,X,1,,,,,,,,,,,26,0,52,0,,,,,,,,,,,,,,,,,,,,,,,,,,,,,,,,,,,,,,,,,,,,,,,,,,,,,,,,,,,,,,,,,,,,,,,,,,,,,,,,,,,,,,,,,,,,,,,,,,,,,,,,,,,1636.916606299812,1637.8680432999972,1,1,0.6881279000081122,1636.916606299812,1637.8680432999972,1637.8648504999,None,,,,,,,,,,,,,,,,,,,,,,,,,,,,,,,1101,002,1,UA,2022_Feb_18_0951,task_complete_blocked_LC_updated,2021.2.3,238.4040283538096,
,,,O,2,,,,,,,,,,,26,1,53,1,,,,,,,,,,,,,,,,,,,,,,,,,,,,,,,,,,,,,,,,,,,,,,,,,,,,,,,,,,,,,,,,,,,,,,,,,,,,,,,,,,,,,,,,,,,,,,,,,,,,,,,,,,,1637.9167088998947,1638.8704273998737,2,1,0.7886574000585824,1637.9167088998947,1638.8704273998737,1638.8607007998507,None,,,,,,,,,,,,,,,,,,,,,,,,,,,,,,,1101,002,1,UA,2022_Feb_18_0951,task_complete_blocked_LC_updated,2021.2.3,238.4040283538096,
,,,X,1,,,,,,,,,,,27,0,54,0,,,,,,,,,,,,,,,,,,,,,,,,,,,,,,,,,,,,,,,,,,,,,,,,,,,,,,,,,,,,,,,,,,,,,,,,,,,,,,,,,,,,,,,,,,,,,,,,,,,,,,,,,,,1638.9150272998959,1639.8672227999195,1,1,0.5454190000891685,1638.9150272998959,1639.8672227999195,1639.8633518998977,1638.9150272998959,,,,,,,,,,,,,,,,,,,,,,,,,,,,,,,1101,002,1,UA,2022_Feb_18_0951,task_complete_blocked_LC_updated,2021.2.3,238.4040283538096,
,,,O,2,,,,,,,,,,,27,1,55,1,,,,,,,,,,,,,,,,,,,,,,,,,,,,,,,,,,,,,,,,,,,,,,,,,,,,,,,,,,,,,,,,,,,,,,,,,,,,,,,,,,,,,,,,,,,,,,,,,,,,,,,,,,,1639.920483799884,1640.8740628999658,2,1,0.38112889998592436,1639.920483799884,1640.8740628999658,1640.8644234999083,None,,,,,,,,,,,,,,,,,,,,,,,,,,,,,,,1101,002,1,UA,2022_Feb_18_0951,task_complete_blocked_LC_updated,2021.2.3,238.4040283538096,
,,,O,2,,,,,,,,,,,28,0,56,1,,,,,,,,,,,,,,,,,,,,,,,,,,,,,,,,,,,,,,,,,,,,,,,,,,,,,,,,,,,,,,,,,,,,,,,,,,,,,,,,,,,,,,,,,,,,,,,,,,,,,,,,,,,1640.9166782000102,1641.868689399911,2,1,0.49575649993494153,1640.9166782000102,1641.868689399911,1641.868689399911,None,,,,,,,,,,,,,,,,,,,,,,,,,,,,,,,1101,002,1,UA,2022_Feb_18_0951,task_complete_blocked_LC_updated,2021.2.3,238.4040283538096,
,,,X,1,,,,,,,,,,,28,1,57,0,,,,,,,,,,,,,,,,,,,,,,,,,,,,,,,,,,,,,,,,,,,,,,,,,,,,,,,,,,,,,,,,,,,,,,,,,,,,,,,,,,,,,,,,,,,,,,,,,,,,,,,,,,,1641.9168244998436,1642.866456199903,1,1,0.5011305001098663,1641.9168244998436,1642.866456199903,1642.8631490999833,None,,,,,,,,,,,,,,,,,,,,,,,,,,,,,,,1101,002,1,UA,2022_Feb_18_0951,task_complete_blocked_LC_updated,2021.2.3,238.4040283538096,
,,,X,1,,,,,,,,,,,29,0,58,0,,,,,,,,,,,,,,,,,,,,,,,,,,,,,,,,,,,,,,,,,,,,,,,,,,,,,,,,,,,,,,,,,,,,,,,,,,,,,,,,,,,,,,,,,,,,,,,,,,,,,,,,,,,1642.9200271998998,1643.8697712998837,1,1,0.459874700056389,1642.9200271998998,1643.8697712998837,1643.8615861998405,None,,,,,,,,,,,,,,,,,,,,,,,,,,,,,,,1101,002,1,UA,2022_Feb_18_0951,task_complete_blocked_LC_updated,2021.2.3,238.4040283538096,
,,,O,2,,,,,,,,,,,29,1,59,1,,,,,,,,,,,,,,,,,,,,,,,,,,,,,,,,,,,,,,,,,,,,,,,,,,,,,,,,,,,,,,,,,,,,,,,,,,,,,,,,,,,,,,,,,,,,,,,,,,,,,,,,,,,1643.9144115999807,1644.8678029999137,2,1,0.5552857997827232,1643.9144115999807,1644.8678029999137,1644.8636043998413,1643.9144115999807,,,,,,,,,,,,,,,,,,,,,,,,,,,,,,,1101,002,1,UA,2022_Feb_18_0951,task_complete_blocked_LC_updated,2021.2.3,238.4040283538096,
,,,,,,,,,,,,,,,,,,,,,,,,,,,,,,,,,,,,,,,,,,,,,,,,,,,,,,,,,,,,,,,,,,,,,,,,,,,,,,,,,,,,,,,,,,,,,,,,,,,,,,,,,,,,,,,,,,,,,,,,,,,,,,,,,,,,,,1644.915501399897,None,space,21.928944199811667,1649.915712799877,None,,,,,,,,,,,,,,,,,,,,,,,,,1101,002,1,UA,2022_Feb_18_0951,task_complete_blocked_LC_updated,2021.2.3,238.4040283538096,
,,,,,,,,,,,,,,,,,,,,,,,,,,,,,,,,,,,,,,,,,,,,,,,,,,,,,,,,,,,,,,,,,,,,,,,,,,,,,,,,,,,,,,,,,,,,,,,1671.8525169999339,None,5,14.412890400039032,1671.8525169999339,None,,,,,,,,,,,,,,,,,,,,,,,,,,,,,,,,,,,,,,,,1649.915712799877,None,,,,,,,,,,,,,,,,,,,,,,,1101,002,1,UA,2022_Feb_18_0951,task_complete_blocked_LC_updated,2021.2.3,238.4040283538096,
stimulus_images/Aeasteregg14.jpg,TIME,0,,,,,,,,,,,,,,,,,0,0,0,6,,,,,,,,,,,,,,,,,,,,,,,,,,,,,,,,,,,,,,,,,,,,,,,,,,,,,,,,,,,,,,,,,,,,,,,,,,,,,,,3.400025889277458e-06,1686.289705599891,1688.2910900998395,1686.289705599891,1688.2910900998395,1687.2834415000398,1688.288336499827,1687.2834415000398,1688.288336499827,1688.288336499827,None,5.99339049984701,1692.2788493998814,None,1692.2788493998814,None,3,1.1814720002003014,1692.2788493998814,None,1698.2806500999723,None,,,,,,,,,,,,,,,,,,,,,,,,,,,,,,,,,,,,,,,,,,1101,002,1,UA,2022_Feb_18_0951,task_complete_blocked_LC_updated,2021.2.3,238.4040283538096,
stimulus_images/Aboxofchocola.jpg,TIME,0,,,,,,,,,,,,,,,,,0,1,1,3,,,,,,,,,,,,,,,,,,,,,,,,,,,,,,,,,,,,,,,,,,,,,,,,,,,,,,,,,,,,,,,,,,,,,,,,,,,,,,,13.999325699871406,1700.289117399836,1702.289468199946,1700.289117399836,1702.289468199946,1701.2875877998304,1702.289468199946,1701.2875877998304,1702.289468199946,1702.286596499849,None,20.00189319998026,1706.28867239994,None,1706.28867239994,None,2,0.8379355000797659,1706.28867239994,None,1712.2854230999947,None,,,,,,,,,,,,,,,,,,,,,,,,,,,,,,,,,,,,,,,,,,1101,002,1,UA,2022_Feb_18_0951,task_complete_blocked_LC_updated,2021.2.3,238.4040283538096,
stimulus_images/AICESKAT8.jpg,TIME,0,,,,,,,,,,,,,,,,,0,2,2,8,,,,,,,,,,,,,,,,,,,,,,,,,,,,,,,,,,,,,,,,,,,,,,,,,,,,,,,,,,,,,,,,,,,,,,,,,,,,,,,28.00328029994853,1714.2984354998916,1716.2998881998938,1714.2984354998916,1716.2998881998938,1715.2967299998272,1716.296728399815,1715.2967299998272,1716.296728399815,1716.296728399815,None,34.0062202999834,1720.2956644999795,None,1720.2956644999795,None,1,0.4068992999382317,1720.2956644999795,None,1726.3009700998664,None,,,,,,,,,,,,,,,,,,,,,,,,,,,,,,,,,,,,,,,,,,1101,002,1,UA,2022_Feb_18_0951,task_complete_blocked_LC_updated,2021.2.3,238.4040283538096,
stimulus_images/ABILLTABL.jpg,TIME,1,,,,,,,,,,,,,,,,,0,3,3,2,,,,,,,,,,,,,,,,,,,,,,,,,,,,,,,,,,,,,,,,,,,,,,,,,,,,,,,,,,,,,,,,,,,,,,,,,,,,,,,43.020239299861714,1729.3087512999773,1731.3080327999778,1729.3087512999773,1731.3080327999778,1730.3039376998786,1731.3040489000268,1730.3039376998786,1731.3040489000268,1731.3040489000268,None,49.02121039992198,1735.3073161998764,None,1735.3073161998764,None,1,0.6370748998597264,1735.3073161998764,None,1741.3097013998777,None,,,,,,,,,,,,,,,,,,,,,,,,,,,,,,,,,,,,,,,,,,1101,002,1,UA,2022_Feb_18_0951,task_complete_blocked_LC_updated,2021.2.3,238.4040283538096,
stimulus_images/Acomputerdriv.jpg,TIME,0,,,,,,,,,,,,,,,,,0,4,4,5,,,,,,,,,,,,,,,,,,,,,,,,,,,,,,,,,,,,,,,,,,,,,,,,,,,,,,,,,,,,,,,,,,,,,,,,,,,,,,,56.02844109991565,1742.3178536000196,1744.3176752999425,1742.3178536000196,1744.3176752999425,1743.3127895998769,1744.3145429999568,1743.3127895998769,1744.3145429999568,1744.3145429999568,None,62.031212699832395,1748.3163045998663,None,1748.3163045998663,None,3,1.3293546999339014,1748.3163045998663,None,1754.318922400009,None,,,,,,,,,,,,,,,,,,,,,,,,,,,,,,,,,,,,,,,,,,1101,002,1,UA,2022_Feb_18_0951,task_complete_blocked_LC_updated,2021.2.3,238.4040283538096,
stimulus_images/Agiftbag20.jpg,TIME,1,,,,,,,,,,,,,,,,,0,5,5,7,,,,,,,,,,,,,,,,,,,,,,,,,,,,,,,,,,,,,,,,,,,,,,,,,,,,,,,,,,,,,,,,,,,,,,,,,,,,,,,69.03786759986542,1755.327060499927,1757.3259320999496,1755.327060499927,1757.3259320999496,1756.321231199894,1757.3259320999496,1756.321231199894,1757.3259320999496,1757.3229041998275,None,75.03957309992984,1761.324716599891,None,1761.324716599891,None,4,0.5871657999232411,1761.324716599891,None,1767.3274299998302,None,,,,,,,,,,,,,,,,,,,,,,,,,,,,,,,,,,,,,,,,,,1101,002,1,UA,2022_Feb_18_0951,task_complete_blocked_LC_updated,2021.2.3,238.4040283538096,
stimulus_images/AARMCHA25.jpg,TIME,0,,,,,,,,,,,,,,,,,0,6,6,0,,,,,,,,,,,,,,,,,,,,,,,,,,,,,,,,,,,,,,,,,,,,,,,,,,,,,,,,,,,,,,,,,,,,,,,,,,,,,,,82.04557999991812,1768.3395944000222,1770.3402322998736,1768.3395944000222,1770.3402322998736,1769.3383837998845,1770.3402322998736,1769.3383837998845,1770.3402322998736,1770.3402322998736,None,88.04847759986296,1774.3361951999832,None,1774.3361951999832,None,3,1.124220000114292,1774.3361951999832,None,1780.3348417999223,None,,,,,,,,,,,,,,,,,,,,,,,,,,,,,,,,,,,,,,,,,,1101,002,1,UA,2022_Feb_18_0951,task_complete_blocked_LC_updated,2021.2.3,238.4040283538096,
stimulus_images/ACAROSLI2.jpg,TIME,0,,,,,,,,,,,,,,,,,0,7,7,4,,,,,,,,,,,,,,,,,,,,,,,,,,,,,,,,,,,,,,,,,,,,,,,,,,,,,,,,,,,,,,,,,,,,,,,,,,,,,,,96.05342140002176,1782.341825200012,1784.3429366999771,1782.341825200012,1784.3429366999771,1783.3373873999808,1784.3429366999771,1783.3373873999808,1784.3429366999771,1784.3399391998537,None,102.05711039993912,1788.343178199837,None,1788.343178199837,None,3,0.9653926999308169,1788.343178199837,None,1794.3399884998798,None,,,,,,,,,,,,,,,,,,,,,,,,,,,,,,,,,,,,,,,,,,1101,002,1,UA,2022_Feb_18_0951,task_complete_blocked_LC_updated,2021.2.3,238.4040283538096,
stimulus_images/AOTOSCOP5.jpg,TIME,0,,,,,,,,,,,,,,,,,0,8,8,9,,,,,,,,,,,,,,,,,,,,,,,,,,,,,,,,,,,,,,,,,,,,,,,,,,,,,,,,,,,,,,,,,,,,,,,,,,,,,,,109.05804749997333,1795.3472905999515,1797.352882700041,1795.3472905999515,1797.352882700041,1796.3418524998706,1797.3419391999487,1796.3418524998706,1797.3419391999487,1797.3419391999487,None,115.05848170001991,1801.3437761999667,None,1801.3437761999667,None,4,0.84683070005849,1801.3437761999667,None,1807.3459140998311,None,,,,,,,,,,,,,,,,,,,,,,,,,,,,,,,,,,,,,,,,,,1101,002,1,UA,2022_Feb_18_0951,task_complete_blocked_LC_updated,2021.2.3,238.4040283538096,
stimulus_images/ABALLYAR4.jpg,TIME,0,,,,,,,,,,,,,,,,,0,9,9,1,,,,,,,,,,,,,,,,,,,,,,,,,,,,,,,,,,,,,,,,,,,,,,,,,,,,,,,,,,,,,,,,,,,,,,,,,,,,,,,124.06282610003836,1810.3582086998504,1812.3610769999214,1810.3582086998504,1812.3610769999214,1811.354675799841,1812.3577985998709,1811.354675799841,1812.3577985998709,1812.3577985998709,None,130.0648262000177,1816.350073999958,None,1816.350073999958,None,1,0.6488566000480205,1816.350073999958,None,1822.35038920003,None,,,,,,,,,,,,,,,,,,,,,,,,,,,,,,,,,,,,,,,,,,1101,002,1,UA,2022_Feb_18_0951,task_complete_blocked_LC_updated,2021.2.3,238.4040283538096,
stimulus_images/corkscrew02.jpg,TIME,0,,,,,,,,,,,,,,,,,,,,,0,0,0,2,,,,,,,,,,,,,,,,,,,,,,,,,,,,,,,,,,,,,,,,,,,,,,,,,,,,,,,,,,,,,,,,,,,,,,,,,,,139.07256599981338,1825.3683589999564,1827.3673979998566,1825.3683589999564,1827.3673979998566,1826.3629089999013,1827.361212800024,1826.3629089999013,1827.361212800024,1827.361212800024,None,145.06947799981572,1831.3548977999017,None,1831.3548977999017,None,3,0.7239444002043456,1831.3548977999017,None,1837.3528890998568,None,,,,,,,,,,,,,,,,,,,,,,,,,,,,,,,,,,,,,,,,,,1101,002,1,UA,2022_Feb_18_0951,task_complete_blocked_LC_updated,2021.2.3,238.4040283538096,
stimulus_images/AALTIRE2.jpg,TIME,0,,,,,,,,,,,,,,,,,,,,,0,1,1,5,,,,,,,,,,,,,,,,,,,,,,,,,,,,,,,,,,,,,,,,,,,,,,,,,,,,,,,,,,,,,,,,,,,,,,,,,,,154.07120589981787,1840.3589963000268,1842.360701299971,1840.3589963000268,1842.360701299971,1841.3546289999504,1842.3541951000225,1841.3546289999504,1842.3541951000225,1842.3541951000225,None,160.07257699989714,1846.3618260000367,None,1846.3618260000367,None,3,0.9485782999545336,1846.3618260000367,None,1852.358060499886,None,,,,,,,,,,,,,,,,,,,,,,,,,,,,,,,,,,,,,,,,,,1101,002,1,UA,2022_Feb_18_0951,task_complete_blocked_LC_updated,2021.2.3,238.4040283538096,
stimulus_images/A25thdec3.jpg,TIME,0,,,,,,,,,,,,,,,,,,,,,0,2,2,4,,,,,,,,,,,,,,,,,,,,,,,,,,,,,,,,,,,,,,,,,,,,,,,,,,,,,,,,,,,,,,,,,,,,,,,,,,,168.07531509990804,1854.3714460998308,1856.3724868998397,1854.3714460998308,1856.3724868998397,1855.3676175000146,1856.3689178999048,1855.3676175000146,1856.3689178999048,1856.3689178999048,None,174.0776674998924,1860.3628258998506,None,1860.3628258998506,None,1,0.6071225998457521,1860.3628258998506,None,1866.363045499893,None,,,,,,,,,,,,,,,,,,,,,,,,,,,,,,,,,,,,,,,,,,1101,002,1,UA,2022_Feb_18_0951,task_complete_blocked_LC_updated,2021.2.3,238.4040283538096,
stimulus_images/Abasketofbrea.jpg,TIME,0,,,,,,,,,,,,,,,,,,,,,0,3,3,8,,,,,,,,,,,,,,,,,,,,,,,,,,,,,,,,,,,,,,,,,,,,,,,,,,,,,,,,,,,,,,,,,,,,,,,,,,,181.07930310000665,1867.3749012998305,1869.375474399887,1867.3749012998305,1869.375474399887,1868.3755441999529,1869.375474399887,1868.3755441999529,1869.375474399887,1869.3722696998157,None,187.08114010002464,1873.3666751999408,None,1873.3666751999408,None,1,0.4133809998165816,1873.3666751999408,None,1879.36898629996,None,,,,,,,,,,,,,,,,,,,,,,,,,,,,,,,,,,,,,,,,,,1101,002,1,UA,2022_Feb_18_0951,task_complete_blocked_LC_updated,2021.2.3,238.4040283538096,
stimulus_images/Atelescope2.jpg,TIME,1,,,,,,,,,,,,,,,,,,,,,0,4,4,1,,,,,,,,,,,,,,,,,,,,,,,,,,,,,,,,,,,,,,,,,,,,,,,,,,,,,,,,,,,,,,,,,,,,,,,,,,,196.08541269996203,1882.37582820002,1884.3735749998596,1882.37582820002,1884.3735749998596,1883.3730692998506,1884.3735749998596,1883.3730692998506,1884.3735749998596,1884.3711049000267,None,202.0864939999301,1888.372821699828,None,1888.372821699828,None,2,1.26377630000934,1888.372821699828,None,1894.3704424998723,None,,,,,,,,,,,,,,,,,,,,,,,,,,,,,,,,,,,,,,,,,,1101,002,1,UA,2022_Feb_18_0951,task_complete_blocked_LC_updated,2021.2.3,238.4040283538096,
stimulus_images/Aroadsignin15.jpg,TIME,1,,,,,,,,,,,,,,,,,,,,,0,5,5,0,,,,,,,,,,,,,,,,,,,,,,,,,,,,,,,,,,,,,,,,,,,,,,,,,,,,,,,,,,,,,,,,,,,,,,,,,,,210.08782369992696,1896.3826603000052,1898.3822297998704,1896.3826603000052,1898.3822297998704,1897.383219699841,1898.3822297998704,1897.383219699841,1898.3822297998704,1898.3795588999055,None,216.09031839994714,1902.375755699817,None,1902.375755699817,None,1,0.7592646998818964,1902.375755699817,None,1908.378262899816,None,,,,,,,,,,,,,,,,,,,,,,,,,,,,,,,,,,,,,,,,,,1101,002,1,UA,2022_Feb_18_0951,task_complete_blocked_LC_updated,2021.2.3,238.4040283538096,
stimulus_images/Abackpack11.jpg,TIME,1,,,,,,,,,,,,,,,,,,,,,0,6,6,7,,,,,,,,,,,,,,,,,,,,,,,,,,,,,,,,,,,,,,,,,,,,,,,,,,,,,,,,,,,,,,,,,,,,,,,,,,,224.10042879986577,1910.3960747998208,1912.3980768998154,1910.3960747998208,1912.3980768998154,1911.3937725999858,1912.3980768998154,1911.3937725999858,1912.3980768998154,1912.3980768998154,None,230.10306139988825,1916.3886251000222,None,1916.3886251000222,None,1,0.44308480015024543,1916.3886251000222,None,1922.3893913000356,None,,,,,,,,,,,,,,,,,,,,,,,,,,,,,,,,,,,,,,,,,,1101,002,1,UA,2022_Feb_18_0951,task_complete_blocked_LC_updated,2021.2.3,238.4040283538096,
stimulus_images/Aboots56.jpg,TIME,0,,,,,,,,,,,,,,,,,,,,,0,7,7,9,,,,,,,,,,,,,,,,,,,,,,,,,,,,,,,,,,,,,,,,,,,,,,,,,,,,,,,,,,,,,,,,,,,,,,,,,,,238.10511010000482,1924.3938404000364,1926.3938330998644,1924.3938404000364,1926.3938330998644,1925.3902952999342,1926.3907439999748,1925.3902952999342,1926.3907439999748,1926.3869757000357,None,244.1051222998649,1930.3906832998618,None,1930.3906832998618,None,4,0.7608882000204176,1930.3906832998618,None,1936.3915404998697,None,,,,,,,,,,,,,,,,,,,,,,,,,,,,,,,,,,,,,,,,,,1101,002,1,UA,2022_Feb_18_0951,task_complete_blocked_LC_updated,2021.2.3,238.4040283538096,
stimulus_images/Aantiquerota7.jpg,TIME,0,,,,,,,,,,,,,,,,,,,,,0,8,8,6,,,,,,,,,,,,,,,,,,,,,,,,,,,,,,,,,,,,,,,,,,,,,,,,,,,,,,,,,,,,,,,,,,,,,,,,,,,252.10947209992446,1938.4001449998468,1940.402291599894,1938.4001449998468,1940.402291599894,1939.3925820998847,1940.398333699908,1939.3925820998847,1940.398333699908,1940.398333699908,None,258.1116265999153,1944.3968048000243,None,1944.3968048000243,None,4,1.2036363000515848,1944.3968048000243,None,1950.3948740998749,None,,,,,,,,,,,,,,,,,,,,,,,,,,,,,,,,,,,,,,,,,,1101,002,1,UA,2022_Feb_18_0951,task_complete_blocked_LC_updated,2021.2.3,238.4040283538096,
stimulus_images/wetsuit1.jpg,TIME,0,,,,,,,,,,,,,,,,,,,,,0,9,9,3,,,,,,,,,,,,,,,,,,,,,,,,,,,,,,,,,,,,,,,,,,,,,,,,,,,,,,,,,,,,,,,,,,,,,,,,,,,265.11357809999026,1951.4030112999026,1953.40371340001,1951.4030112999026,1953.40371340001,1952.397275999887,1953.4001700000372,1952.397275999887,1953.4001700000372,1953.4001700000372,None,271.1160018998198,1957.402256499976,None,1957.402256499976,None,4,0.8324116000439972,1957.402256499976,None,1963.4053604998626,None,,,,,,,,,,,,,,,,,,,,,,,,,,,,,,,,,,,,,,,,,,1101,002,1,UA,2022_Feb_18_0951,task_complete_blocked_LC_updated,2021.2.3,238.4040283538096,
,,,X,1,,,,,,,,,,,,,,,,,,,,,,,0,0,0,0,,,,,,,,,,,,,,,,,,,,,,,,,,,,,,,,,,,,,,,,,,,,,,,,,,,,,,,,,,,,,,,,,,,,,,,,,,,,,,,,,,,,,,,,,,,,,1966.4061723998748,None,1969.416059399955,1970.365191299934,1,1,0.7574675001669675,1969.416059399955,1970.365191299934,1970.361773799872,None,,,,,,,,,,,,,,,,,,,,,,,,,,,,,,,1101,002,1,UA,2022_Feb_18_0951,task_complete_blocked_LC_updated,2021.2.3,238.4040283538096,
,,,O,2,,,,,,,,,,,,,,,,,,,,,,,0,1,1,1,,,,,,,,,,,,,,,,,,,,,,,,,,,,,,,,,,,,,,,,,,,,,,,,,,,,,,,,,,,,,,,,,,,,,,,,,,,,,,,,,,,,,,,,,,,,,,,1970.411067100009,1971.3613102999516,2,1,0.4545392000582069,1970.411067100009,1971.3613102999516,1971.357476499863,None,,,,,,,,,,,,,,,,,,,,,,,,,,,,,,,1101,002,1,UA,2022_Feb_18_0951,task_complete_blocked_LC_updated,2021.2.3,238.4040283538096,
,,,X,1,,,,,,,,,,,,,,,,,,,,,,,1,0,2,0,,,,,,,,,,,,,,,,,,,,,,,,,,,,,,,,,,,,,,,,,,,,,,,,,,,,,,,,,,,,,,,,,,,,,,,,,,,,,,,,,,,,,,,,,,,,,,,1971.410560599994,1972.365858899895,1,1,0.4252821998670697,1971.410560599994,1972.365858899895,1972.3622017998714,None,,,,,,,,,,,,,,,,,,,,,,,,,,,,,,,1101,002,1,UA,2022_Feb_18_0951,task_complete_blocked_LC_updated,2021.2.3,238.4040283538096,
,,,O,2,,,,,,,,,,,,,,,,,,,,,,,1,1,3,1,,,,,,,,,,,,,,,,,,,,,,,,,,,,,,,,,,,,,,,,,,,,,,,,,,,,,,,,,,,,,,,,,,,,,,,,,,,,,,,,,,,,,,,,,,,,,,,1972.4104406998958,1973.3615361999255,2,1,0.4931160002015531,1972.4104406998958,1973.3615361999255,1973.3590137998108,None,,,,,,,,,,,,,,,,,,,,,,,,,,,,,,,1101,002,1,UA,2022_Feb_18_0951,task_complete_blocked_LC_updated,2021.2.3,238.4040283538096,
,,,X,1,,,,,,,,,,,,,,,,,,,,,,,2,0,4,0,,,,,,,,,,,,,,,,,,,,,,,,,,,,,,,,,,,,,,,,,,,,,,,,,,,,,,,,,,,,,,,,,,,,,,,,,,,,,,,,,,,,,,,,,,,,,,,1973.4102572998963,1974.3620421998203,1,1,0.5135107000824064,1973.4102572998963,1974.3620421998203,1974.3585065999068,None,,,,,,,,,,,,,,,,,,,,,,,,,,,,,,,1101,002,1,UA,2022_Feb_18_0951,task_complete_blocked_LC_updated,2021.2.3,238.4040283538096,
,,,O,2,,,,,,,,,,,,,,,,,,,,,,,2,1,5,1,,,,,,,,,,,,,,,,,,,,,,,,,,,,,,,,,,,,,,,,,,,,,,,,,,,,,,,,,,,,,,,,,,,,,,,,,,,,,,,,,,,,,,,,,,,,,,,1974.4104077999946,1975.3642656998709,2,1,0.4472720001358539,1974.4104077999946,1975.3642656998709,1975.3566407999024,None,,,,,,,,,,,,,,,,,,,,,,,,,,,,,,,1101,002,1,UA,2022_Feb_18_0951,task_complete_blocked_LC_updated,2021.2.3,238.4040283538096,
,,,O,2,,,,,,,,,,,,,,,,,,,,,,,3,0,6,1,,,,,,,,,,,,,,,,,,,,,,,,,,,,,,,,,,,,,,,,,,,,,,,,,,,,,,,,,,,,,,,,,,,,,,,,,,,,,,,,,,,,,,,,,,,,,,,1975.4077859998215,1976.3573083998635,2,1,0.5191514999605715,1975.4077859998215,1976.3573083998635,1976.354795999825,1975.4077859998215,,,,,,,,,,,,,,,,,,,,,,,,,,,,,,,1101,002,1,UA,2022_Feb_18_0951,task_complete_blocked_LC_updated,2021.2.3,238.4040283538096,
,,,X,1,,,,,,,,,,,,,,,,,,,,,,,3,1,7,0,,,,,,,,,,,,,,,,,,,,,,,,,,,,,,,,,,,,,,,,,,,,,,,,,,,,,,,,,,,,,,,,,,,,,,,,,,,,,,,,,,,,,,,,,,,,,,,1976.4072238998488,1977.3557827998884,1,1,0.5693861998151988,1976.4072238998488,1977.3557827998884,1977.3557827998884,1976.4072238998488,,,,,,,,,,,,,,,,,,,,,,,,,,,,,,,1101,002,1,UA,2022_Feb_18_0951,task_complete_blocked_LC_updated,2021.2.3,238.4040283538096,
,,,O,2,,,,,,,,,,,,,,,,,,,,,,,4,0,8,1,,,,,,,,,,,,,,,,,,,,,,,,,,,,,,,,,,,,,,,,,,,,,,,,,,,,,,,,,,,,,,,,,,,,,,,,,,,,,,,,,,,,,,,,,,,,,,,1977.4066820000298,1978.3595070999581,2,1,0.5000859000720084,1977.4066820000298,1978.3595070999581,1978.3595070999581,1977.4066820000298,,,,,,,,,,,,,,,,,,,,,,,,,,,,,,,1101,002,1,UA,2022_Feb_18_0951,task_complete_blocked_LC_updated,2021.2.3,238.4040283538096,
,,,X,1,,,,,,,,,,,,,,,,,,,,,,,4,1,9,0,,,,,,,,,,,,,,,,,,,,,,,,,,,,,,,,,,,,,,,,,,,,,,,,,,,,,,,,,,,,,,,,,,,,,,,,,,,,,,,,,,,,,,,,,,,,,,,1978.4106018999591,1979.360611999873,1,1,0.48208270012401044,1978.4106018999591,1979.360611999873,1979.3581935998518,None,,,,,,,,,,,,,,,,,,,,,,,,,,,,,,,1101,002,1,UA,2022_Feb_18_0951,task_complete_blocked_LC_updated,2021.2.3,238.4040283538096,
,,,O,2,,,,,,,,,,,,,,,,,,,,,,,5,0,10,1,,,,,,,,,,,,,,,,,,,,,,,,,,,,,,,,,,,,,,,,,,,,,,,,,,,,,,,,,,,,,,,,,,,,,,,,,,,,,,,,,,,,,,,,,,,,,,,1979.4097894998267,1980.36185700004,2,1,0.48759500007145107,1979.4097894998267,1980.36185700004,1980.3594753998332,None,,,,,,,,,,,,,,,,,,,,,,,,,,,,,,,1101,002,1,UA,2022_Feb_18_0951,task_complete_blocked_LC_updated,2021.2.3,238.4040283538096,
,,,X,1,,,,,,,,,,,,,,,,,,,,,,,5,1,11,0,,,,,,,,,,,,,,,,,,,,,,,,,,,,,,,,,,,,,,,,,,,,,,,,,,,,,,,,,,,,,,,,,,,,,,,,,,,,,,,,,,,,,,,,,,,,,,,1980.4098047998268,1981.3595270998776,1,1,0.5089594998862594,1980.4098047998268,1981.3595270998776,1981.3559653998818,None,,,,,,,,,,,,,,,,,,,,,,,,,,,,,,,1101,002,1,UA,2022_Feb_18_0951,task_complete_blocked_LC_updated,2021.2.3,238.4040283538096,
,,,O,2,,,,,,,,,,,,,,,,,,,,,,,6,0,12,1,,,,,,,,,,,,,,,,,,,,,,,,,,,,,,,,,,,,,,,,,,,,,,,,,,,,,,,,,,,,,,,,,,,,,,,,,,,,,,,,,,,,,,,,,,,,,,,1981.4074214999564,1982.3565271999687,2,1,0.46797030000016093,1981.4074214999564,1982.3565271999687,1982.3565271999687,1981.4074214999564,,,,,,,,,,,,,,,,,,,,,,,,,,,,,,,1101,002,1,UA,2022_Feb_18_0951,task_complete_blocked_LC_updated,2021.2.3,238.4040283538096,
,,,X,1,,,,,,,,,,,,,,,,,,,,,,,6,1,13,0,,,,,,,,,,,,,,,,,,,,,,,,,,,,,,,,,,,,,,,,,,,,,,,,,,,,,,,,,,,,,,,,,,,,,,,,,,,,,,,,,,,,,,,,,,,,,,,1982.4099344999995,1983.3577825999819,None,0,,1982.4099344999995,1983.3577825999819,1983.3554042000324,None,,,,,,,,,,,,,,,,,,,,,,,,,,,,,,,1101,002,1,UA,2022_Feb_18_0951,task_complete_blocked_LC_updated,2021.2.3,238.4040283538096,
,,,O,2,,,,,,,,,,,,,,,,,,,,,,,7,0,14,1,,,,,,,,,,,,,,,,,,,,,,,,,,,,,,,,,,,,,,,,,,,,,,,,,,,,,,,,,,,,,,,,,,,,,,,,,,,,,,,,,,,,,,,,,,,,,,,1983.4068793999031,1984.355402899906,2,1,0.47698760009370744,1983.4068793999031,1984.355402899906,1984.355402899906,1983.4068793999031,,,,,,,,,,,,,,,,,,,,,,,,,,,,,,,1101,002,1,UA,2022_Feb_18_0951,task_complete_blocked_LC_updated,2021.2.3,238.4040283538096,
,,,X,1,,,,,,,,,,,,,,,,,,,,,,,7,1,15,0,,,,,,,,,,,,,,,,,,,,,,,,,,,,,,,,,,,,,,,,,,,,,,,,,,,,,,,,,,,,,,,,,,,,,,,,,,,,,,,,,,,,,,,,,,,,,,,1984.4076298999134,1985.3588549999986,1,1,0.549803800182417,1984.4076298999134,1985.3588549999986,1985.3562596000265,1984.4076298999134,,,,,,,,,,,,,,,,,,,,,,,,,,,,,,,1101,002,1,UA,2022_Feb_18_0951,task_complete_blocked_LC_updated,2021.2.3,238.4040283538096,
,,,X,1,,,,,,,,,,,,,,,,,,,,,,,8,0,16,0,,,,,,,,,,,,,,,,,,,,,,,,,,,,,,,,,,,,,,,,,,,,,,,,,,,,,,,,,,,,,,,,,,,,,,,,,,,,,,,,,,,,,,,,,,,,,,,1985.4068450999912,1986.3565215000417,1,1,0.4798234000336379,1985.4068450999912,1986.3565215000417,1986.3541017000098,1985.4068450999912,,,,,,,,,,,,,,,,,,,,,,,,,,,,,,,1101,002,1,UA,2022_Feb_18_0951,task_complete_blocked_LC_updated,2021.2.3,238.4040283538096,
,,,O,2,,,,,,,,,,,,,,,,,,,,,,,8,1,17,1,,,,,,,,,,,,,,,,,,,,,,,,,,,,,,,,,,,,,,,,,,,,,,,,,,,,,,,,,,,,,,,,,,,,,,,,,,,,,,,,,,,,,,,,,,,,,,,1986.40750449989,1987.3568881999236,2,1,0.46113290009088814,1986.40750449989,1987.3568881999236,1987.3568881999236,1986.40750449989,,,,,,,,,,,,,,,,,,,,,,,,,,,,,,,1101,002,1,UA,2022_Feb_18_0951,task_complete_blocked_LC_updated,2021.2.3,238.4040283538096,
,,,X,1,,,,,,,,,,,,,,,,,,,,,,,9,0,18,0,,,,,,,,,,,,,,,,,,,,,,,,,,,,,,,,,,,,,,,,,,,,,,,,,,,,,,,,,,,,,,,,,,,,,,,,,,,,,,,,,,,,,,,,,,,,,,,1987.4102089998778,1988.359834099887,1,1,0.5402081001084298,1987.4102089998778,1988.359834099887,1988.3569418999832,None,,,,,,,,,,,,,,,,,,,,,,,,,,,,,,,1101,002,1,UA,2022_Feb_18_0951,task_complete_blocked_LC_updated,2021.2.3,238.4040283538096,
,,,O,2,,,,,,,,,,,,,,,,,,,,,,,9,1,19,1,,,,,,,,,,,,,,,,,,,,,,,,,,,,,,,,,,,,,,,,,,,,,,,,,,,,,,,,,,,,,,,,,,,,,,,,,,,,,,,,,,,,,,,,,,,,,,,1988.4108959999867,1989.3611411999445,2,1,0.5584937001112849,1988.4108959999867,1989.3611411999445,1989.3586483998224,None,,,,,,,,,,,,,,,,,,,,,,,,,,,,,,,1101,002,1,UA,2022_Feb_18_0951,task_complete_blocked_LC_updated,2021.2.3,238.4040283538096,
,,,O,2,,,,,,,,,,,,,,,,,,,,,,,10,0,20,1,,,,,,,,,,,,,,,,,,,,,,,,,,,,,,,,,,,,,,,,,,,,,,,,,,,,,,,,,,,,,,,,,,,,,,,,,,,,,,,,,,,,,,,,,,,,,,,1989.4095981998835,1990.3574649000075,2,1,0.5437628999352455,1989.4095981998835,1990.3574649000075,1990.3549057999626,None,,,,,,,,,,,,,,,,,,,,,,,,,,,,,,,1101,002,1,UA,2022_Feb_18_0951,task_complete_blocked_LC_updated,2021.2.3,238.4040283538096,
,,,X,1,,,,,,,,,,,,,,,,,,,,,,,10,1,21,0,,,,,,,,,,,,,,,,,,,,,,,,,,,,,,,,,,,,,,,,,,,,,,,,,,,,,,,,,,,,,,,,,,,,,,,,,,,,,,,,,,,,,,,,,,,,,,,1990.4068928998895,1991.3576783000026,1,1,0.5126614000182599,1990.4068928998895,1991.3576783000026,1991.3548469999805,1990.4068928998895,,,,,,,,,,,,,,,,,,,,,,,,,,,,,,,1101,002,1,UA,2022_Feb_18_0951,task_complete_blocked_LC_updated,2021.2.3,238.4040283538096,
,,,O,2,,,,,,,,,,,,,,,,,,,,,,,11,0,22,1,,,,,,,,,,,,,,,,,,,,,,,,,,,,,,,,,,,,,,,,,,,,,,,,,,,,,,,,,,,,,,,,,,,,,,,,,,,,,,,,,,,,,,,,,,,,,,,1991.4084629998542,1992.3596308999695,2,1,0.48289839993231,1991.4084629998542,1992.3596308999695,1992.3570114998147,1991.4084629998542,,,,,,,,,,,,,,,,,,,,,,,,,,,,,,,1101,002,1,UA,2022_Feb_18_0951,task_complete_blocked_LC_updated,2021.2.3,238.4040283538096,
,,,X,1,,,,,,,,,,,,,,,,,,,,,,,11,1,23,0,,,,,,,,,,,,,,,,,,,,,,,,,,,,,,,,,,,,,,,,,,,,,,,,,,,,,,,,,,,,,,,,,,,,,,,,,,,,,,,,,,,,,,,,,,,,,,,1992.411257199943,1993.362205900019,1,1,0.47631850000470877,1992.411257199943,1993.362205900019,1993.359379899921,None,,,,,,,,,,,,,,,,,,,,,,,,,,,,,,,1101,002,1,UA,2022_Feb_18_0951,task_complete_blocked_LC_updated,2021.2.3,238.4040283538096,
,,,X,1,,,,,,,,,,,,,,,,,,,,,,,12,0,24,0,,,,,,,,,,,,,,,,,,,,,,,,,,,,,,,,,,,,,,,,,,,,,,,,,,,,,,,,,,,,,,,,,,,,,,,,,,,,,,,,,,,,,,,,,,,,,,,1993.4110665000044,1994.3613151998725,1,1,0.4654755999799818,1993.4110665000044,1994.3613151998725,1994.3587273999583,None,,,,,,,,,,,,,,,,,,,,,,,,,,,,,,,1101,002,1,UA,2022_Feb_18_0951,task_complete_blocked_LC_updated,2021.2.3,238.4040283538096,
,,,O,2,,,,,,,,,,,,,,,,,,,,,,,12,1,25,1,,,,,,,,,,,,,,,,,,,,,,,,,,,,,,,,,,,,,,,,,,,,,,,,,,,,,,,,,,,,,,,,,,,,,,,,,,,,,,,,,,,,,,,,,,,,,,,1994.4104787998367,1995.3638298998121,2,1,0.38593959994614124,1994.4104787998367,1995.3638298998121,1995.3610113000032,None,,,,,,,,,,,,,,,,,,,,,,,,,,,,,,,1101,002,1,UA,2022_Feb_18_0951,task_complete_blocked_LC_updated,2021.2.3,238.4040283538096,
,,,X,1,,,,,,,,,,,,,,,,,,,,,,,13,0,26,0,,,,,,,,,,,,,,,,,,,,,,,,,,,,,,,,,,,,,,,,,,,,,,,,,,,,,,,,,,,,,,,,,,,,,,,,,,,,,,,,,,,,,,,,,,,,,,,1995.4108162999619,1996.361696699867,1,1,0.8895660999696702,1995.4108162999619,1996.361696699867,1996.3590120999143,None,,,,,,,,,,,,,,,,,,,,,,,,,,,,,,,1101,002,1,UA,2022_Feb_18_0951,task_complete_blocked_LC_updated,2021.2.3,238.4040283538096,
,,,O,2,,,,,,,,,,,,,,,,,,,,,,,13,1,27,1,,,,,,,,,,,,,,,,,,,,,,,,,,,,,,,,,,,,,,,,,,,,,,,,,,,,,,,,,,,,,,,,,,,,,,,,,,,,,,,,,,,,,,,,,,,,,,,1996.410402199952,1997.359974999912,2,1,0.3504927000030875,1996.410402199952,1997.359974999912,1997.357457799837,None,,,,,,,,,,,,,,,,,,,,,,,,,,,,,,,1101,002,1,UA,2022_Feb_18_0951,task_complete_blocked_LC_updated,2021.2.3,238.4040283538096,
,,,O,2,,,,,,,,,,,,,,,,,,,,,,,14,0,28,1,,,,,,,,,,,,,,,,,,,,,,,,,,,,,,,,,,,,,,,,,,,,,,,,,,,,,,,,,,,,,,,,,,,,,,,,,,,,,,,,,,,,,,,,,,,,,,,1997.4096243998501,1998.3596655000001,2,1,0.45879500010050833,1997.4096243998501,1998.3596655000001,1998.356921599945,None,,,,,,,,,,,,,,,,,,,,,,,,,,,,,,,1101,002,1,UA,2022_Feb_18_0951,task_complete_blocked_LC_updated,2021.2.3,238.4040283538096,
,,,X,1,,,,,,,,,,,,,,,,,,,,,,,14,1,29,0,,,,,,,,,,,,,,,,,,,,,,,,,,,,,,,,,,,,,,,,,,,,,,,,,,,,,,,,,,,,,,,,,,,,,,,,,,,,,,,,,,,,,,,,,,,,,,,1998.4111740998924,1999.3623067999724,1,1,0.4142230001743883,1998.4111740998924,1999.3623067999724,1999.3588517999742,None,,,,,,,,,,,,,,,,,,,,,,,,,,,,,,,1101,002,1,UA,2022_Feb_18_0951,task_complete_blocked_LC_updated,2021.2.3,238.4040283538096,
,,,O,2,,,,,,,,,,,,,,,,,,,,,,,15,0,30,1,,,,,,,,,,,,,,,,,,,,,,,,,,,,,,,,,,,,,,,,,,,,,,,,,,,,,,,,,,,,,,,,,,,,,,,,,,,,,,,,,,,,,,,,,,,,,,,1999.41121439985,2000.3608070998453,2,1,0.44655589992180467,1999.41121439985,2000.3608070998453,2000.3575326998252,None,,,,,,,,,,,,,,,,,,,,,,,,,,,,,,,1101,002,1,UA,2022_Feb_18_0951,task_complete_blocked_LC_updated,2021.2.3,238.4040283538096,
,,,X,1,,,,,,,,,,,,,,,,,,,,,,,15,1,31,0,,,,,,,,,,,,,,,,,,,,,,,,,,,,,,,,,,,,,,,,,,,,,,,,,,,,,,,,,,,,,,,,,,,,,,,,,,,,,,,,,,,,,,,,,,,,,,,2000.4112490999978,2001.365864599822,1,1,0.5141998000908643,2000.4112490999978,2001.365864599822,2001.35566809983,None,,,,,,,,,,,,,,,,,,,,,,,,,,,,,,,1101,002,1,UA,2022_Feb_18_0951,task_complete_blocked_LC_updated,2021.2.3,238.4040283538096,
,,,X,1,,,,,,,,,,,,,,,,,,,,,,,16,0,32,0,,,,,,,,,,,,,,,,,,,,,,,,,,,,,,,,,,,,,,,,,,,,,,,,,,,,,,,,,,,,,,,,,,,,,,,,,,,,,,,,,,,,,,,,,,,,,,,2001.408156099962,2002.3597621999215,1,1,0.46652569994330406,2001.408156099962,2002.3597621999215,2002.3566350999754,2001.408156099962,,,,,,,,,,,,,,,,,,,,,,,,,,,,,,,1101,002,1,UA,2022_Feb_18_0951,task_complete_blocked_LC_updated,2021.2.3,238.4040283538096,
,,,O,2,,,,,,,,,,,,,,,,,,,,,,,16,1,33,1,,,,,,,,,,,,,,,,,,,,,,,,,,,,,,,,,,,,,,,,,,,,,,,,,,,,,,,,,,,,,,,,,,,,,,,,,,,,,,,,,,,,,,,,,,,,,,,2002.4096486000344,2003.357310499996,2,1,0.43136789998970926,2002.4096486000344,2003.357310499996,2003.357310499996,None,,,,,,,,,,,,,,,,,,,,,,,,,,,,,,,1101,002,1,UA,2022_Feb_18_0951,task_complete_blocked_LC_updated,2021.2.3,238.4040283538096,
,,,O,2,,,,,,,,,,,,,,,,,,,,,,,17,0,34,1,,,,,,,,,,,,,,,,,,,,,,,,,,,,,,,,,,,,,,,,,,,,,,,,,,,,,,,,,,,,,,,,,,,,,,,,,,,,,,,,,,,,,,,,,,,,,,,2003.4099554000422,2004.3631078999024,2,1,0.40393949998542666,2003.4099554000422,2004.3631078999024,2004.3546694999095,None,,,,,,,,,,,,,,,,,,,,,,,,,,,,,,,1101,002,1,UA,2022_Feb_18_0951,task_complete_blocked_LC_updated,2021.2.3,238.4040283538096,
,,,X,1,,,,,,,,,,,,,,,,,,,,,,,17,1,35,0,,,,,,,,,,,,,,,,,,,,,,,,,,,,,,,,,,,,,,,,,,,,,,,,,,,,,,,,,,,,,,,,,,,,,,,,,,,,,,,,,,,,,,,,,,,,,,,2004.4092971999198,2005.361429499928,1,1,0.416381899965927,2004.4092971999198,2005.361429499928,2005.3580704999622,2004.4092971999198,,,,,,,,,,,,,,,,,,,,,,,,,,,,,,,1101,002,1,UA,2022_Feb_18_0951,task_complete_blocked_LC_updated,2021.2.3,238.4040283538096,
,,,O,2,,,,,,,,,,,,,,,,,,,,,,,18,0,36,1,,,,,,,,,,,,,,,,,,,,,,,,,,,,,,,,,,,,,,,,,,,,,,,,,,,,,,,,,,,,,,,,,,,,,,,,,,,,,,,,,,,,,,,,,,,,,,,2005.415520099923,2006.3668527998962,2,1,0.4659158999565989,2005.415520099923,2006.3668527998962,2006.363388299942,None,,,,,,,,,,,,,,,,,,,,,,,,,,,,,,,1101,002,1,UA,2022_Feb_18_0951,task_complete_blocked_LC_updated,2021.2.3,238.4040283538096,
,,,X,1,,,,,,,,,,,,,,,,,,,,,,,18,1,37,0,,,,,,,,,,,,,,,,,,,,,,,,,,,,,,,,,,,,,,,,,,,,,,,,,,,,,,,,,,,,,,,,,,,,,,,,,,,,,,,,,,,,,,,,,,,,,,,2006.4108760999516,2007.3662239999976,1,1,0.6255609998479486,2006.4108760999516,2007.3662239999976,2007.3632751000114,None,,,,,,,,,,,,,,,,,,,,,,,,,,,,,,,1101,002,1,UA,2022_Feb_18_0951,task_complete_blocked_LC_updated,2021.2.3,238.4040283538096,
,,,O,2,,,,,,,,,,,,,,,,,,,,,,,19,0,38,1,,,,,,,,,,,,,,,,,,,,,,,,,,,,,,,,,,,,,,,,,,,,,,,,,,,,,,,,,,,,,,,,,,,,,,,,,,,,,,,,,,,,,,,,,,,,,,,2007.4106133999303,2008.3627768999431,2,1,0.4069660999812186,2007.4106133999303,2008.3627768999431,2008.3591944000218,None,,,,,,,,,,,,,,,,,,,,,,,,,,,,,,,1101,002,1,UA,2022_Feb_18_0951,task_complete_blocked_LC_updated,2021.2.3,238.4040283538096,
,,,X,1,,,,,,,,,,,,,,,,,,,,,,,19,1,39,0,,,,,,,,,,,,,,,,,,,,,,,,,,,,,,,,,,,,,,,,,,,,,,,,,,,,,,,,,,,,,,,,,,,,,,,,,,,,,,,,,,,,,,,,,,,,,,,2008.4105215999298,2009.3628368999343,1,1,0.41613789997063577,2008.4105215999298,2009.3628368999343,2009.3593250999693,None,,,,,,,,,,,,,,,,,,,,,,,,,,,,,,,1101,002,1,UA,2022_Feb_18_0951,task_complete_blocked_LC_updated,2021.2.3,238.4040283538096,
,,,X,1,,,,,,,,,,,,,,,,,,,,,,,20,0,40,0,,,,,,,,,,,,,,,,,,,,,,,,,,,,,,,,,,,,,,,,,,,,,,,,,,,,,,,,,,,,,,,,,,,,,,,,,,,,,,,,,,,,,,,,,,,,,,,2009.4112841999158,2010.364108499838,1,1,0.4181262000929564,2009.4112841999158,2010.364108499838,2010.3552557998337,None,,,,,,,,,,,,,,,,,,,,,,,,,,,,,,,1101,002,1,UA,2022_Feb_18_0951,task_complete_blocked_LC_updated,2021.2.3,238.4040283538096,
,,,O,2,,,,,,,,,,,,,,,,,,,,,,,20,1,41,1,,,,,,,,,,,,,,,,,,,,,,,,,,,,,,,,,,,,,,,,,,,,,,,,,,,,,,,,,,,,,,,,,,,,,,,,,,,,,,,,,,,,,,,,,,,,,,,2010.4077055999078,2011.3651341998484,2,1,0.35950720007531345,2010.4077055999078,2011.3651341998484,2011.3651341998484,2010.4077055999078,,,,,,,,,,,,,,,,,,,,,,,,,,,,,,,1101,002,1,UA,2022_Feb_18_0951,task_complete_blocked_LC_updated,2021.2.3,238.4040283538096,
,,,O,2,,,,,,,,,,,,,,,,,,,,,,,21,0,42,1,,,,,,,,,,,,,,,,,,,,,,,,,,,,,,,,,,,,,,,,,,,,,,,,,,,,,,,,,,,,,,,,,,,,,,,,,,,,,,,,,,,,,,,,,,,,,,,2011.411787299905,2012.3646956000011,2,1,0.38084730016998947,2011.411787299905,2012.3646956000011,2012.3549444000237,None,,,,,,,,,,,,,,,,,,,,,,,,,,,,,,,1101,002,1,UA,2022_Feb_18_0951,task_complete_blocked_LC_updated,2021.2.3,238.4040283538096,
,,,X,1,,,,,,,,,,,,,,,,,,,,,,,21,1,43,0,,,,,,,,,,,,,,,,,,,,,,,,,,,,,,,,,,,,,,,,,,,,,,,,,,,,,,,,,,,,,,,,,,,,,,,,,,,,,,,,,,,,,,,,,,,,,,,2012.4086588998325,2013.3620137998369,1,1,0.49306089989840984,2012.4086588998325,2013.3620137998369,2013.3591642000247,2012.4086588998325,,,,,,,,,,,,,,,,,,,,,,,,,,,,,,,1101,002,1,UA,2022_Feb_18_0951,task_complete_blocked_LC_updated,2021.2.3,238.4040283538096,
,,,X,1,,,,,,,,,,,,,,,,,,,,,,,22,0,44,0,,,,,,,,,,,,,,,,,,,,,,,,,,,,,,,,,,,,,,,,,,,,,,,,,,,,,,,,,,,,,,,,,,,,,,,,,,,,,,,,,,,,,,,,,,,,,,,2013.4111240999773,2014.3623828999698,1,1,0.42932060011662543,2013.4111240999773,2014.3623828999698,2014.3587163998745,None,,,,,,,,,,,,,,,,,,,,,,,,,,,,,,,1101,002,1,UA,2022_Feb_18_0951,task_complete_blocked_LC_updated,2021.2.3,238.4040283538096,
,,,O,2,,,,,,,,,,,,,,,,,,,,,,,22,1,45,1,,,,,,,,,,,,,,,,,,,,,,,,,,,,,,,,,,,,,,,,,,,,,,,,,,,,,,,,,,,,,,,,,,,,,,,,,,,,,,,,,,,,,,,,,,,,,,,2014.4108004998416,2015.3610082999803,2,1,0.3652976998127997,2014.4108004998416,2015.3610082999803,2015.357824599836,None,,,,,,,,,,,,,,,,,,,,,,,,,,,,,,,1101,002,1,UA,2022_Feb_18_0951,task_complete_blocked_LC_updated,2021.2.3,238.4040283538096,
,,,X,1,,,,,,,,,,,,,,,,,,,,,,,23,0,46,0,,,,,,,,,,,,,,,,,,,,,,,,,,,,,,,,,,,,,,,,,,,,,,,,,,,,,,,,,,,,,,,,,,,,,,,,,,,,,,,,,,,,,,,,,,,,,,,2015.411058299942,2016.3600224000402,1,1,0.3383998000063002,2015.411058299942,2016.3600224000402,2016.355942999944,None,,,,,,,,,,,,,,,,,,,,,,,,,,,,,,,1101,002,1,UA,2022_Feb_18_0951,task_complete_blocked_LC_updated,2021.2.3,238.4040283538096,
,,,O,2,,,,,,,,,,,,,,,,,,,,,,,23,1,47,1,,,,,,,,,,,,,,,,,,,,,,,,,,,,,,,,,,,,,,,,,,,,,,,,,,,,,,,,,,,,,,,,,,,,,,,,,,,,,,,,,,,,,,,,,,,,,,,2016.4090022998862,2017.3571946998127,2,1,0.46612010011449456,2016.4090022998862,2017.3571946998127,2017.3571946998127,2016.4090022998862,,,,,,,,,,,,,,,,,,,,,,,,,,,,,,,1101,002,1,UA,2022_Feb_18_0951,task_complete_blocked_LC_updated,2021.2.3,238.4040283538096,
,,,O,2,,,,,,,,,,,,,,,,,,,,,,,24,0,48,1,,,,,,,,,,,,,,,,,,,,,,,,,,,,,,,,,,,,,,,,,,,,,,,,,,,,,,,,,,,,,,,,,,,,,,,,,,,,,,,,,,,,,,,,,,,,,,,2017.4078213998582,2018.3602750999853,2,1,0.4299761999864131,2017.4078213998582,2018.3602750999853,2018.3602750999853,2017.4078213998582,,,,,,,,,,,,,,,,,,,,,,,,,,,,,,,1101,002,1,UA,2022_Feb_18_0951,task_complete_blocked_LC_updated,2021.2.3,238.4040283538096,
,,,X,1,,,,,,,,,,,,,,,,,,,,,,,24,1,49,0,,,,,,,,,,,,,,,,,,,,,,,,,,,,,,,,,,,,,,,,,,,,,,,,,,,,,,,,,,,,,,,,,,,,,,,,,,,,,,,,,,,,,,,,,,,,,,,2018.4107967999298,2019.3601842999924,1,1,0.4489748999476433,2018.4107967999298,2019.3601842999924,2019.355910899816,None,,,,,,,,,,,,,,,,,,,,,,,,,,,,,,,1101,002,1,UA,2022_Feb_18_0951,task_complete_blocked_LC_updated,2021.2.3,238.4040283538096,
,,,O,2,,,,,,,,,,,,,,,,,,,,,,,25,0,50,1,,,,,,,,,,,,,,,,,,,,,,,,,,,,,,,,,,,,,,,,,,,,,,,,,,,,,,,,,,,,,,,,,,,,,,,,,,,,,,,,,,,,,,,,,,,,,,,2019.408695799997,2020.3587319999933,2,1,0.5059569000732154,2019.408695799997,2020.3587319999933,2020.3553765998222,2019.408695799997,,,,,,,,,,,,,,,,,,,,,,,,,,,,,,,1101,002,1,UA,2022_Feb_18_0951,task_complete_blocked_LC_updated,2021.2.3,238.4040283538096,
,,,X,1,,,,,,,,,,,,,,,,,,,,,,,25,1,51,0,,,,,,,,,,,,,,,,,,,,,,,,,,,,,,,,,,,,,,,,,,,,,,,,,,,,,,,,,,,,,,,,,,,,,,,,,,,,,,,,,,,,,,,,,,,,,,,2020.4076975998469,2021.3565481000114,1,1,0.5010381999891251,2020.4076975998469,2021.3565481000114,2021.3565481000114,2020.4076975998469,,,,,,,,,,,,,,,,,,,,,,,,,,,,,,,1101,002,1,UA,2022_Feb_18_0951,task_complete_blocked_LC_updated,2021.2.3,238.4040283538096,
,,,X,1,,,,,,,,,,,,,,,,,,,,,,,26,0,52,0,,,,,,,,,,,,,,,,,,,,,,,,,,,,,,,,,,,,,,,,,,,,,,,,,,,,,,,,,,,,,,,,,,,,,,,,,,,,,,,,,,,,,,,,,,,,,,,2021.4080182998441,2022.3599620999303,1,1,0.5506558998022228,2021.4080182998441,2022.3599620999303,2022.356052899966,2021.4080182998441,,,,,,,,,,,,,,,,,,,,,,,,,,,,,,,1101,002,1,UA,2022_Feb_18_0951,task_complete_blocked_LC_updated,2021.2.3,238.4040283538096,
,,,O,2,,,,,,,,,,,,,,,,,,,,,,,26,1,53,1,,,,,,,,,,,,,,,,,,,,,,,,,,,,,,,,,,,,,,,,,,,,,,,,,,,,,,,,,,,,,,,,,,,,,,,,,,,,,,,,,,,,,,,,,,,,,,,2022.4074363999534,2023.3603848000057,2,1,0.49702080013230443,2022.4074363999534,2023.3603848000057,2023.356858999934,2022.4074363999534,,,,,,,,,,,,,,,,,,,,,,,,,,,,,,,1101,002,1,UA,2022_Feb_18_0951,task_complete_blocked_LC_updated,2021.2.3,238.4040283538096,
,,,O,2,,,,,,,,,,,,,,,,,,,,,,,27,0,54,1,,,,,,,,,,,,,,,,,,,,,,,,,,,,,,,,,,,,,,,,,,,,,,,,,,,,,,,,,,,,,,,,,,,,,,,,,,,,,,,,,,,,,,,,,,,,,,,2023.4075980999041,2024.3605851999018,2,1,0.43213220010511577,2023.4075980999041,2024.3605851999018,2024.3572788999882,2023.4075980999041,,,,,,,,,,,,,,,,,,,,,,,,,,,,,,,1101,002,1,UA,2022_Feb_18_0951,task_complete_blocked_LC_updated,2021.2.3,238.4040283538096,
,,,X,1,,,,,,,,,,,,,,,,,,,,,,,27,1,55,0,,,,,,,,,,,,,,,,,,,,,,,,,,,,,,,,,,,,,,,,,,,,,,,,,,,,,,,,,,,,,,,,,,,,,,,,,,,,,,,,,,,,,,,,,,,,,,,2024.4140637000091,2025.3639787998982,1,1,0.4269695000257343,2024.4140637000091,2025.3639787998982,2025.3603481999598,None,,,,,,,,,,,,,,,,,,,,,,,,,,,,,,,1101,002,1,UA,2022_Feb_18_0951,task_complete_blocked_LC_updated,2021.2.3,238.4040283538096,
,,,X,1,,,,,,,,,,,,,,,,,,,,,,,28,0,56,0,,,,,,,,,,,,,,,,,,,,,,,,,,,,,,,,,,,,,,,,,,,,,,,,,,,,,,,,,,,,,,,,,,,,,,,,,,,,,,,,,,,,,,,,,,,,,,,2025.4071988000069,2026.3679203998763,1,1,0.3796277998480946,2025.4071988000069,2026.3679203998763,2026.3601440999191,None,,,,,,,,,,,,,,,,,,,,,,,,,,,,,,,1101,002,1,UA,2022_Feb_18_0951,task_complete_blocked_LC_updated,2021.2.3,238.4040283538096,
,,,O,2,,,,,,,,,,,,,,,,,,,,,,,28,1,57,1,,,,,,,,,,,,,,,,,,,,,,,,,,,,,,,,,,,,,,,,,,,,,,,,,,,,,,,,,,,,,,,,,,,,,,,,,,,,,,,,,,,,,,,,,,,,,,,2026.4114532000385,2027.3628717998508,2,1,0.4764268998987973,2026.4114532000385,2027.3628717998508,2027.3597781998105,None,,,,,,,,,,,,,,,,,,,,,,,,,,,,,,,1101,002,1,UA,2022_Feb_18_0951,task_complete_blocked_LC_updated,2021.2.3,238.4040283538096,
,,,X,1,,,,,,,,,,,,,,,,,,,,,,,29,0,58,0,,,,,,,,,,,,,,,,,,,,,,,,,,,,,,,,,,,,,,,,,,,,,,,,,,,,,,,,,,,,,,,,,,,,,,,,,,,,,,,,,,,,,,,,,,,,,,,2027.4103786998894,2028.3586911999155,1,1,0.39832969987764955,2027.4103786998894,2028.3586911999155,2028.3586911999155,None,,,,,,,,,,,,,,,,,,,,,,,,,,,,,,,1101,002,1,UA,2022_Feb_18_0951,task_complete_blocked_LC_updated,2021.2.3,238.4040283538096,
,,,O,2,,,,,,,,,,,,,,,,,,,,,,,29,1,59,1,,,,,,,,,,,,,,,,,,,,,,,,,,,,,,,,,,,,,,,,,,,,,,,,,,,,,,,,,,,,,,,,,,,,,,,,,,,,,,,,,,,,,,,,,,,,,,,2028.4109514998272,2029.3603288999293,2,1,0.3808413001243025,2028.4109514998272,2029.3603288999293,2029.356189899845,None,,,,,,,,,,,,,,,,,,,,,,,,,,,,,,,1101,002,1,UA,2022_Feb_18_0951,task_complete_blocked_LC_updated,2021.2.3,238.4040283538096,
,,,,,,,,,,,,,,,,,,,,,,,,,,,,,,,,,,,,,,,,,,,,,,,,,,,,,,,,,,,,,,,,,,,,,,,,,,,,,,,,,,,,,,,,,,,,,,,,,,,,,,,,,,,,,,,,,,,,,,,,,,,,,,,,,,,,,,2029.406868299935,None,space,22.725170799996704,2034.407139299903,None,,,,,,,,,,,,,,,,,,,,,,,,,1101,002,1,UA,2022_Feb_18_0951,task_complete_blocked_LC_updated,2021.2.3,238.4040283538096,
,,,,,,,,,,,,,,,,,,,,,,,,,,,,,,,,,,,,,,,,,,,,,,,,,,,,,,,,,,,,,,,,,,,,,,,,,,,,,,,,,,,,,,,,,,,,,,,2057.1380953998305,None,5,11.115560200065374,2057.1380953998305,None,,,,,,,,,,,,,,,,,,,,,,,,,,,,,,,,,,,,,,,,2034.407139299903,None,,,,,,,,,,,,,,,,,,,,,,,1101,002,1,UA,2022_Feb_18_0951,task_complete_blocked_LC_updated,2021.2.3,238.4040283538096,
stimulus_images/Abaseballcap.jpg,SPACE,0,,,,,,,,,,,,,,,,,,,,,,,,,,,,,0,0,0,4,,,,,,,,,,,,,,,,,,,,,,,,,,,,,,,,,,,,,,,,,,,,,,,,,,,,,,,,,,,,,,,,,,,2.499902620911598e-06,2068.2923828000203,2070.2913529998623,2068.2923828000203,2070.2913529998623,2069.2905870999675,2070.2913529998623,2069.2905870999675,2070.2913529998623,2070.2876470999327,None,5.9768300000578165,2074.2643996998668,None,2074.2643996998668,None,2,1.6257387998048216,2074.2643996998668,None,2080.2669728000183,None,,,,,,,,,,,,,,,,,,,,,,,,,,,,,,,,,,,,,,,,,,1101,002,1,UA,2022_Feb_18_0951,task_complete_blocked_LC_updated,2021.2.3,238.4040283538096,
stimulus_images/A1OCLOC2.jpg,SPACE,0,,,,,,,,,,,,,,,,,,,,,,,,,,,,,0,1,1,0,,,,,,,,,,,,,,,,,,,,,,,,,,,,,,,,,,,,,,,,,,,,,,,,,,,,,,,,,,,,,,,,,,,14.982908499892801,2083.279936299892,2085.2813714998774,2083.279936299892,2085.2813714998774,2084.27875269996,2085.2813714998774,2084.27875269996,2085.2813714998774,2085.2772521998268,None,20.985211899969727,2089.2738279998302,None,2089.2738279998302,None,1,2.405732400016859,2089.2738279998302,None,2095.2718239999376,None,,,,,,,,,,,,,,,,,,,,,,,,,,,,,,,,,,,,,,,,,,1101,002,1,UA,2022_Feb_18_0951,task_complete_blocked_LC_updated,2021.2.3,238.4040283538096,
stimulus_images/AANTIBIK4.jpg,SPACE,1,,,,,,,,,,,,,,,,,,,,,,,,,,,,,0,2,2,2,,,,,,,,,,,,,,,,,,,,,,,,,,,,,,,,,,,,,,,,,,,,,,,,,,,,,,,,,,,,,,,,,,,28.986852299887687,2097.2848363998346,2099.293654500041,2097.2848363998346,2099.293654500041,2098.28273119987,2099.293654500041,2098.28273119987,2099.293654500041,2099.2893499999773,None,34.989394899923354,2103.277344199829,None,2103.277344199829,None,3,2.779092499986291,2103.277344199829,None,2109.277372899931,None,,,,,,,,,,,,,,,,,,,,,,,,,,,,,,,,,,,,,,,,,,1101,002,1,UA,2022_Feb_18_0951,task_complete_blocked_LC_updated,2021.2.3,238.4040283538096,
stimulus_images/ABULLDOG5.jpg,SPACE,0,,,,,,,,,,,,,,,,,,,,,,,,,,,,,0,3,3,6,,,,,,,,,,,,,,,,,,,,,,,,,,,,,,,,,,,,,,,,,,,,,,,,,,,,,,,,,,,,,,,,,,,41.99140099994838,2110.2889061998576,2112.2865992998704,2110.2889061998576,2112.2865992998704,2111.285628099926,2112.284018700011,2111.285628099926,2112.284018700011,2112.284018700011,None,47.9935973000247,2116.281497400021,None,2116.281497400021,None,4,0.475914099952206,2116.281497400021,None,2122.2799897999503,None,,,,,,,,,,,,,,,,,,,,,,,,,,,,,,,,,,,,,,,,,,1101,002,1,UA,2022_Feb_18_0951,task_complete_blocked_LC_updated,2021.2.3,238.4040283538096,
stimulus_images/AAFRICI13.jpg,SPACE,0,,,,,,,,,,,,,,,,,,,,,,,,,,,,,0,4,4,1,,,,,,,,,,,,,,,,,,,,,,,,,,,,,,,,,,,,,,,,,,,,,,,,,,,,,,,,,,,,,,,,,,,54.99523620004766,2123.2917335999664,2125.294763099868,2123.2917335999664,2125.294763099868,2124.2913571998943,2125.294763099868,2124.2913571998943,2125.294763099868,2125.290906799957,None,60.998406999977306,2129.2861385999713,None,2129.2861385999713,None,4,1.5544714001007378,2129.2861385999713,None,2135.286015199963,None,,,,,,,,,,,,,,,,,,,,,,,,,,,,,,,,,,,,,,,,,,1101,002,1,UA,2022_Feb_18_0951,task_complete_blocked_LC_updated,2021.2.3,238.4040283538096,
stimulus_images/AFILM.jpg,SPACE,0,,,,,,,,,,,,,,,,,,,,,,,,,,,,,0,5,5,9,,,,,,,,,,,,,,,,,,,,,,,,,,,,,,,,,,,,,,,,,,,,,,,,,,,,,,,,,,,,,,,,,,,69.99933999986388,2138.2905861998443,2140.295049899956,2138.2905861998443,2140.295049899956,2139.282923599938,2140.290863999864,2139.282923599938,2140.290863999864,2140.290863999864,None,76.00287989992648,2144.290503999917,None,2144.290503999917,None,3,2.1863311999477446,2144.290503999917,None,2150.2912524000276,None,,,,,,,,,,,,,,,,,,,,,,,,,,,,,,,,,,,,,,,,,,1101,002,1,UA,2022_Feb_18_0951,task_complete_blocked_LC_updated,2021.2.3,238.4040283538096,
stimulus_images/Ablackma3.jpg,SPACE,1,,,,,,,,,,,,,,,,,,,,,,,,,,,,,0,6,6,5,,,,,,,,,,,,,,,,,,,,,,,,,,,,,,,,,,,,,,,,,,,,,,,,,,,,,,,,,,,,,,,,,,,84.00400099996477,2152.30209370004,2154.306991199963,2152.30209370004,2154.306991199963,2153.298982899869,2154.306991199963,2153.298982899869,2154.306991199963,2154.306991199963,None,90.0064093999099,2158.294249000028,None,2158.294249000028,None,2,1.6725783001165837,2158.294249000028,None,2164.295340599958,None,,,,,,,,,,,,,,,,,,,,,,,,,,,,,,,,,,,,,,,,,,1101,002,1,UA,2022_Feb_18_0951,task_complete_blocked_LC_updated,2021.2.3,238.4040283538096,
stimulus_images/Achair608.jpg,SPACE,0,,,,,,,,,,,,,,,,,,,,,,,,,,,,,0,7,7,7,,,,,,,,,,,,,,,,,,,,,,,,,,,,,,,,,,,,,,,,,,,,,,,,,,,,,,,,,,,,,,,,,,,98.01214400003664,2166.3098070998676,2168.3121397998184,2166.3098070998676,2168.3121397998184,2167.3074044999667,2168.3121397998184,2167.3074044999667,2168.3121397998184,2168.3121397998184,None,104.01478209998459,2172.3057005999144,None,2172.3057005999144,None,4,0.7010117000900209,2172.3057005999144,None,2178.304195399862,None,,,,,,,,,,,,,,,,,,,,,,,,,,,,,,,,,,,,,,,,,,1101,002,1,UA,2022_Feb_18_0951,task_complete_blocked_LC_updated,2021.2.3,238.4040283538096,
stimulus_images/acquarium.jpg,SPACE,1,,,,,,,,,,,,,,,,,,,,,,,,,,,,,0,8,8,8,,,,,,,,,,,,,,,,,,,,,,,,,,,,,,,,,,,,,,,,,,,,,,,,,,,,,,,,,,,,,,,,,,,113.01766910008155,2181.3161977999844,2183.31520870002,2181.3161977999844,2183.31520870002,2182.311658799881,2183.3115177999716,2182.311658799881,2183.3115177999716,2183.3115177999716,None,119.02460170001723,2187.3129187999293,None,2187.3129187999293,None,1,0.6857789000496268,2187.3129187999293,None,2193.3067922999617,None,,,,,,,,,,,,,,,,,,,,,,,,,,,,,,,,,,,,,,,,,,1101,002,1,UA,2022_Feb_18_0951,task_complete_blocked_LC_updated,2021.2.3,238.4040283538096,
stimulus_images/Ababseat2.jpg,SPACE,0,,,,,,,,,,,,,,,,,,,,,,,,,,,,,0,9,9,3,,,,,,,,,,,,,,,,,,,,,,,,,,,,,,,,,,,,,,,,,,,,,,,,,,,,,,,,,,,,,,,,,,,127.02097119996324,2195.318594199838,2197.3198402000125,2195.318594199838,2197.3198402000125,2196.3158050999045,2197.316601499915,2196.3158050999045,2197.316601499915,2197.316601499915,None,133.02538240002468,2201.3131597000174,None,2201.3131597000174,None,4,0.6263991999439895,2201.3131597000174,None,2207.314257199876,None,,,,,,,,,,,,,,,,,,,,,,,,,,,,,,,,,,,,,,,,,,1101,002,1,UA,2022_Feb_18_0951,task_complete_blocked_LC_updated,2021.2.3,238.4040283538096,
stimulus_images/Atoywheels.jpg,SPACE,0,,,,,,,,,,,,,,,,,,,,,,,,,,,,,,,,,0,0,0,4,,,,,,,,,,,,,,,,,,,,,,,,,,,,,,,,,,,,,,,,,,,,,,,,,,,,,,,,,,,,,,,142.03567770007066,2210.3325789999217,2212.3318685998674,2210.3325789999217,2212.3318685998674,2211.3283227998763,2212.3318685998674,2211.3283227998763,2212.3318685998674,2212.3289899998344,None,148.0320818000473,2216.319981199922,None,2216.319981199922,None,2,1.97892010002397,2216.319981199922,None,2222.321612499887,None,,,,,,,,,,,,,,,,,,,,,,,,,,,,,,,,,,,,,,,,,,1101,002,1,UA,2022_Feb_18_0951,task_complete_blocked_LC_updated,2021.2.3,238.4040283538096,
stimulus_images/woodvase.jpg,SPACE,1,,,,,,,,,,,,,,,,,,,,,,,,,,,,,,,,,0,1,1,6,,,,,,,,,,,,,,,,,,,,,,,,,,,,,,,,,,,,,,,,,,,,,,,,,,,,,,,,,,,,,,,156.0372905000113,2224.345228999853,2226.3471110998653,2224.345228999853,2226.3471110998653,2225.336943199858,2226.340007999912,2225.336943199858,2226.340007999912,2226.3358085998334,None,162.0410766999703,2230.3295622000005,None,2230.3295622000005,None,3,1.2199164999183267,2230.3295622000005,None,2236.324594100006,None,,,,,,,,,,,,,,,,,,,,,,,,,,,,,,,,,,,,,,,,,,1101,002,1,UA,2022_Feb_18_0951,task_complete_blocked_LC_updated,2021.2.3,238.4040283538096,
stimulus_images/Asaxophone.jpg,SPACE,1,,,,,,,,,,,,,,,,,,,,,,,,,,,,,,,,,0,2,2,3,,,,,,,,,,,,,,,,,,,,,,,,,,,,,,,,,,,,,,,,,,,,,,,,,,,,,,,,,,,,,,,169.03831620002165,2237.3364566999953,2239.3412951999344,2237.3364566999953,2239.3412951999344,2238.3333395998925,2239.336359999841,2238.3333395998925,2239.336359999841,2239.336359999841,None,175.04041030001827,2243.327944400022,None,2243.327944400022,None,4,1.0884922000113875,2243.327944400022,None,2249.3283881999087,None,,,,,,,,,,,,,,,,,,,,,,,,,,,,,,,,,,,,,,,,,,1101,002,1,UA,2022_Feb_18_0951,task_complete_blocked_LC_updated,2021.2.3,238.4040283538096,
stimulus_images/A4DOMINO.jpg,SPACE,0,,,,,,,,,,,,,,,,,,,,,,,,,,,,,,,,,0,3,3,7,,,,,,,,,,,,,,,,,,,,,,,,,,,,,,,,,,,,,,,,,,,,,,,,,,,,,,,,,,,,,,,183.04261439992115,2251.3395226998255,2253.345205999911,2251.3395226998255,2253.345205999911,2252.33715269994,2253.3370056999847,2252.33715269994,2253.3370056999847,2253.3370056999847,None,189.0445171999745,2257.333338599885,None,2257.333338599885,None,3,1.4003412001766264,2257.333338599885,None,2263.3353575000074,None,,,,,,,,,,,,,,,,,,,,,,,,,,,,,,,,,,,,,,,,,,1101,002,1,UA,2022_Feb_18_0951,task_complete_blocked_LC_updated,2021.2.3,238.4040283538096,
stimulus_images/AAIRPUMP2.jpg,SPACE,0,,,,,,,,,,,,,,,,,,,,,,,,,,,,,,,,,0,4,4,8,,,,,,,,,,,,,,,,,,,,,,,,,,,,,,,,,,,,,,,,,,,,,,,,,,,,,,,,,,,,,,,197.05052859988064,2265.342645799974,2267.3459864000324,2265.342645799974,2267.3459864000324,2266.3380707998294,2267.340698499931,2266.3380707998294,2267.340698499931,2267.340698499931,None,203.0556624000892,2271.345077899983,None,2271.345077899983,None,1,0.9028818998485804,2271.345077899983,None,2277.3433842000086,None,,,,,,,,,,,,,,,,,,,,,,,,,,,,,,,,,,,,,,,,,,1101,002,1,UA,2022_Feb_18_0951,task_complete_blocked_LC_updated,2021.2.3,238.4040283538096,
stimulus_images/Agrilledmeata.jpg,SPACE,0,,,,,,,,,,,,,,,,,,,,,,,,,,,,,,,,,0,5,5,0,,,,,,,,,,,,,,,,,,,,,,,,,,,,,,,,,,,,,,,,,,,,,,,,,,,,,,,,,,,,,,,210.05926749994978,2278.350902999984,2280.3499419998843,2278.350902999984,2280.3499419998843,2279.3451245999895,2280.3468382998835,2279.3451245999895,2280.3468382998835,2280.3468382998835,None,216.06144029996358,2284.3494627999607,None,2284.3494627999607,None,None,,2284.3494627999607,None,2290.3492093000095,None,,,,,,,,,,,,,,,,,,,,,,,,,,,,,,,,,,,,,,,,,,1101,002,1,UA,2022_Feb_18_0951,task_complete_blocked_LC_updated,2021.2.3,238.4040283538096,
stimulus_images/ALAMP.jpg,SPACE,0,,,,,,,,,,,,,,,,,,,,,,,,,,,,,,,,,0,6,6,1,,,,,,,,,,,,,,,,,,,,,,,,,,,,,,,,,,,,,,,,,,,,,,,,,,,,,,,,,,,,,,,225.06309220008552,2293.3609988000244,2295.3606602000073,2293.3609988000244,2295.3606602000073,2294.362892499892,2295.363778800005,2294.362892499892,2295.363778800005,2295.3566148998216,None,231.06593160005286,2299.3533923998475,None,2299.3533923998475,None,3,1.3114687998313457,2299.3533923998475,None,2305.3540050999727,None,,,,,,,,,,,,,,,,,,,,,,,,,,,,,,,,,,,,,,,,,,1101,002,1,UA,2022_Feb_18_0951,task_complete_blocked_LC_updated,2021.2.3,238.4040283538096,
stimulus_images/keys-a.jpg,SPACE,0,,,,,,,,,,,,,,,,,,,,,,,,,,,,,,,,,0,7,7,5,,,,,,,,,,,,,,,,,,,,,,,,,,,,,,,,,,,,,,,,,,,,,,,,,,,,,,,,,,,,,,,240.06779669993557,2308.3589178998955,2310.358994900016,2308.3589178998955,2310.358994900016,2309.3578296999913,2310.358994900016,2309.3578296999913,2310.358994900016,2310.3548743999563,None,246.0678713999223,2314.355570500018,None,2314.355570500018,None,2,1.0461512000765651,2314.355570500018,None,2320.355360499816,None,,,,,,,,,,,,,,,,,,,,,,,,,,,,,,,,,,,,,,,,,,1101,002,1,UA,2022_Feb_18_0951,task_complete_blocked_LC_updated,2021.2.3,238.4040283538096,
stimulus_images/Apedestal3.jpg,SPACE,0,,,,,,,,,,,,,,,,,,,,,,,,,,,,,,,,,0,8,8,2,,,,,,,,,,,,,,,,,,,,,,,,,,,,,,,,,,,,,,,,,,,,,,,,,,,,,,,,,,,,,,,254.07474750000983,2322.3658141000196,2324.3677784998436,2322.3658141000196,2324.3677784998436,2323.358579199994,2324.360550099984,2323.358579199994,2324.360550099984,2324.360550099984,None,260.07634219992906,2328.363801299827,None,2328.363801299827,None,2,3.3292471999302506,2328.363801299827,None,2334.36811219994,None,,,,,,,,,,,,,,,,,,,,,,,,,,,,,,,,,,,,,,,,,,1101,002,1,UA,2022_Feb_18_0951,task_complete_blocked_LC_updated,2021.2.3,238.4040283538096,
stimulus_images/Aantiquejuke2.jpg,SPACE,0,,,,,,,,,,,,,,,,,,,,,,,,,,,,,,,,,0,9,9,9,,,,,,,,,,,,,,,,,,,,,,,,,,,,,,,,,,,,,,,,,,,,,,,,,,,,,,,,,,,,,,,267.08437080006115,2335.38219309994,2337.380588799948,2335.38219309994,2337.380588799948,2336.379914699821,2337.380588799948,2336.379914699821,2337.380588799948,2337.377036999911,None,273.0870187000837,2341.374946599826,None,2341.374946599826,None,4,0.7215271999593824,2341.374946599826,None,2347.376037299866,None,,,,,,,,,,,,,,,,,,,,,,,,,,,,,,,,,,,,,,,,,,1101,002,1,UA,2022_Feb_18_0951,task_complete_blocked_LC_updated,2021.2.3,238.4040283538096,
,,,X,1,,,,,,,,,,,,,,,,,,,,,,,,,,,,,,,,,,,0,0,0,0,,,,,,,,,,,,,,,,,,,,,,,,,,,,,,,,,,,,,,,,,,,,,,,,,,,,,,,,,,,,,,,,,,,,,,,,,,,,,,,,,2348.3797442999203,None,2351.3862930999603,2352.3394098000135,1,1,0.7363100000657141,2351.3862930999603,2352.3394098000135,2352.3363393000327,None,,,,,,,,,,,,,,,,,,,,,,,,,,,,,,,1101,002,1,UA,2022_Feb_18_0951,task_complete_blocked_LC_updated,2021.2.3,238.4040283538096,
,,,O,2,,,,,,,,,,,,,,,,,,,,,,,,,,,,,,,,,,,0,1,1,1,,,,,,,,,,,,,,,,,,,,,,,,,,,,,,,,,,,,,,,,,,,,,,,,,,,,,,,,,,,,,,,,,,,,,,,,,,,,,,,,,,,2352.3837311000098,2353.334279499948,2,1,0.47568440018221736,2352.3837311000098,2353.334279499948,2353.3310022000223,None,,,,,,,,,,,,,,,,,,,,,,,,,,,,,,,1101,002,1,UA,2022_Feb_18_0951,task_complete_blocked_LC_updated,2021.2.3,238.4040283538096,
,,,O,2,,,,,,,,,,,,,,,,,,,,,,,,,,,,,,,,,,,1,0,2,1,,,,,,,,,,,,,,,,,,,,,,,,,,,,,,,,,,,,,,,,,,,,,,,,,,,,,,,,,,,,,,,,,,,,,,,,,,,,,,,,,,,2353.387498299824,2354.337263699854,2,1,0.3982096998952329,2353.387498299824,2354.337263699854,2354.3282292999793,None,,,,,,,,,,,,,,,,,,,,,,,,,,,,,,,1101,002,1,UA,2022_Feb_18_0951,task_complete_blocked_LC_updated,2021.2.3,238.4040283538096,
,,,X,1,,,,,,,,,,,,,,,,,,,,,,,,,,,,,,,,,,,1,1,3,0,,,,,,,,,,,,,,,,,,,,,,,,,,,,,,,,,,,,,,,,,,,,,,,,,,,,,,,,,,,,,,,,,,,,,,,,,,,,,,,,,,,2354.3822226999328,2355.3341365000233,1,1,0.4068847999442369,2354.3822226999328,2355.3341365000233,2355.33179249987,2354.3822226999328,,,,,,,,,,,,,,,,,,,,,,,,,,,,,,,1101,002,1,UA,2022_Feb_18_0951,task_complete_blocked_LC_updated,2021.2.3,238.4040283538096,
,,,O,2,,,,,,,,,,,,,,,,,,,,,,,,,,,,,,,,,,,2,0,4,1,,,,,,,,,,,,,,,,,,,,,,,,,,,,,,,,,,,,,,,,,,,,,,,,,,,,,,,,,,,,,,,,,,,,,,,,,,,,,,,,,,,2355.3838873999193,2356.3329685998615,2,1,0.5069097999949008,2355.3838873999193,2356.3329685998615,2356.3329685998615,None,,,,,,,,,,,,,,,,,,,,,,,,,,,,,,,1101,002,1,UA,2022_Feb_18_0951,task_complete_blocked_LC_updated,2021.2.3,238.4040283538096,
,,,X,1,,,,,,,,,,,,,,,,,,,,,,,,,,,,,,,,,,,2,1,5,0,,,,,,,,,,,,,,,,,,,,,,,,,,,,,,,,,,,,,,,,,,,,,,,,,,,,,,,,,,,,,,,,,,,,,,,,,,,,,,,,,,,2356.3841907999013,2357.3381615998223,1,1,0.39339939993806183,2356.3841907999013,2357.3381615998223,2357.3343002998736,None,,,,,,,,,,,,,,,,,,,,,,,,,,,,,,,1101,002,1,UA,2022_Feb_18_0951,task_complete_blocked_LC_updated,2021.2.3,238.4040283538096,
,,,X,1,,,,,,,,,,,,,,,,,,,,,,,,,,,,,,,,,,,3,0,6,0,,,,,,,,,,,,,,,,,,,,,,,,,,,,,,,,,,,,,,,,,,,,,,,,,,,,,,,,,,,,,,,,,,,,,,,,,,,,,,,,,,,2357.3893205998465,2358.3428982000332,1,1,0.38108860002830625,2357.3893205998465,2358.3428982000332,2358.3394170999527,None,,,,,,,,,,,,,,,,,,,,,,,,,,,,,,,1101,002,1,UA,2022_Feb_18_0951,task_complete_blocked_LC_updated,2021.2.3,238.4040283538096,
,,,O,2,,,,,,,,,,,,,,,,,,,,,,,,,,,,,,,,,,,3,1,7,1,,,,,,,,,,,,,,,,,,,,,,,,,,,,,,,,,,,,,,,,,,,,,,,,,,,,,,,,,,,,,,,,,,,,,,,,,,,,,,,,,,,2358.384784199996,2359.336226799991,2,1,0.434087400091812,2358.384784199996,2359.336226799991,2359.3328050000127,None,,,,,,,,,,,,,,,,,,,,,,,,,,,,,,,1101,002,1,UA,2022_Feb_18_0951,task_complete_blocked_LC_updated,2021.2.3,238.4040283538096,
,,,X,1,,,,,,,,,,,,,,,,,,,,,,,,,,,,,,,,,,,4,0,8,0,,,,,,,,,,,,,,,,,,,,,,,,,,,,,,,,,,,,,,,,,,,,,,,,,,,,,,,,,,,,,,,,,,,,,,,,,,,,,,,,,,,2359.384088799823,2360.3364241998643,1,1,0.45046469988301396,2359.384088799823,2360.3364241998643,2360.3335396999028,None,,,,,,,,,,,,,,,,,,,,,,,,,,,,,,,1101,002,1,UA,2022_Feb_18_0951,task_complete_blocked_LC_updated,2021.2.3,238.4040283538096,
,,,O,2,,,,,,,,,,,,,,,,,,,,,,,,,,,,,,,,,,,4,1,9,1,,,,,,,,,,,,,,,,,,,,,,,,,,,,,,,,,,,,,,,,,,,,,,,,,,,,,,,,,,,,,,,,,,,,,,,,,,,,,,,,,,,2360.384409699822,2361.3372724000365,2,1,0.38844230002723634,2360.384409699822,2361.3372724000365,2361.3338395999745,None,,,,,,,,,,,,,,,,,,,,,,,,,,,,,,,1101,002,1,UA,2022_Feb_18_0951,task_complete_blocked_LC_updated,2021.2.3,238.4040283538096,
,,,X,1,,,,,,,,,,,,,,,,,,,,,,,,,,,,,,,,,,,5,0,10,0,,,,,,,,,,,,,,,,,,,,,,,,,,,,,,,,,,,,,,,,,,,,,,,,,,,,,,,,,,,,,,,,,,,,,,,,,,,,,,,,,,,2361.3838980998844,2362.3349414998665,1,1,0.41480619995854795,2361.3838980998844,2362.3349414998665,2362.3309288998134,None,,,,,,,,,,,,,,,,,,,,,,,,,,,,,,,1101,002,1,UA,2022_Feb_18_0951,task_complete_blocked_LC_updated,2021.2.3,238.4040283538096,
,,,O,2,,,,,,,,,,,,,,,,,,,,,,,,,,,,,,,,,,,5,1,11,1,,,,,,,,,,,,,,,,,,,,,,,,,,,,,,,,,,,,,,,,,,,,,,,,,,,,,,,,,,,,,,,,,,,,,,,,,,,,,,,,,,,2362.3849112000316,2363.332871799823,2,1,0.374814199982211,2362.3849112000316,2363.332871799823,2363.3300083000213,None,,,,,,,,,,,,,,,,,,,,,,,,,,,,,,,1101,002,1,UA,2022_Feb_18_0951,task_complete_blocked_LC_updated,2021.2.3,238.4040283538096,
,,,O,2,,,,,,,,,,,,,,,,,,,,,,,,,,,,,,,,,,,6,0,12,1,,,,,,,,,,,,,,,,,,,,,,,,,,,,,,,,,,,,,,,,,,,,,,,,,,,,,,,,,,,,,,,,,,,,,,,,,,,,,,,,,,,2363.3825310999528,2364.334478299832,2,1,0.40291190007701516,2363.3825310999528,2364.334478299832,2364.330494099995,2363.3825310999528,,,,,,,,,,,,,,,,,,,,,,,,,,,,,,,1101,002,1,UA,2022_Feb_18_0951,task_complete_blocked_LC_updated,2021.2.3,238.4040283538096,
,,,X,1,,,,,,,,,,,,,,,,,,,,,,,,,,,,,,,,,,,6,1,13,0,,,,,,,,,,,,,,,,,,,,,,,,,,,,,,,,,,,,,,,,,,,,,,,,,,,,,,,,,,,,,,,,,,,,,,,,,,,,,,,,,,,2364.392389899818,2365.3417078999337,1,1,0.41863429988734424,2364.392389899818,2365.3417078999337,2365.3417078999337,None,,,,,,,,,,,,,,,,,,,,,,,,,,,,,,,1101,002,1,UA,2022_Feb_18_0951,task_complete_blocked_LC_updated,2021.2.3,238.4040283538096,
,,,X,1,,,,,,,,,,,,,,,,,,,,,,,,,,,,,,,,,,,7,0,14,0,,,,,,,,,,,,,,,,,,,,,,,,,,,,,,,,,,,,,,,,,,,,,,,,,,,,,,,,,,,,,,,,,,,,,,,,,,,,,,,,,,,2365.382908700034,2366.3342960998416,1,1,0.3888955998700112,2365.382908700034,2366.3342960998416,2366.331356899813,None,,,,,,,,,,,,,,,,,,,,,,,,,,,,,,,1101,002,1,UA,2022_Feb_18_0951,task_complete_blocked_LC_updated,2021.2.3,238.4040283538096,
,,,O,2,,,,,,,,,,,,,,,,,,,,,,,,,,,,,,,,,,,7,1,15,1,,,,,,,,,,,,,,,,,,,,,,,,,,,,,,,,,,,,,,,,,,,,,,,,,,,,,,,,,,,,,,,,,,,,,,,,,,,,,,,,,,,2366.383044899907,2367.3342200999614,2,1,0.31946879997849464,2366.383044899907,2367.3342200999614,2367.3312866999768,2366.383044899907,,,,,,,,,,,,,,,,,,,,,,,,,,,,,,,1101,002,1,UA,2022_Feb_18_0951,task_complete_blocked_LC_updated,2021.2.3,238.4040283538096,
,,,O,2,,,,,,,,,,,,,,,,,,,,,,,,,,,,,,,,,,,8,0,16,1,,,,,,,,,,,,,,,,,,,,,,,,,,,,,,,,,,,,,,,,,,,,,,,,,,,,,,,,,,,,,,,,,,,,,,,,,,,,,,,,,,,2367.383281099843,2368.334496699972,2,1,0.3475943000521511,2367.383281099843,2368.334496699972,2368.331483399961,None,,,,,,,,,,,,,,,,,,,,,,,,,,,,,,,1101,002,1,UA,2022_Feb_18_0951,task_complete_blocked_LC_updated,2021.2.3,238.4040283538096,
,,,X,1,,,,,,,,,,,,,,,,,,,,,,,,,,,,,,,,,,,8,1,17,0,,,,,,,,,,,,,,,,,,,,,,,,,,,,,,,,,,,,,,,,,,,,,,,,,,,,,,,,,,,,,,,,,,,,,,,,,,,,,,,,,,,2368.384022299899,2369.3338514999487,1,1,0.34394649998284876,2368.384022299899,2369.3338514999487,2369.331046700012,None,,,,,,,,,,,,,,,,,,,,,,,,,,,,,,,1101,002,1,UA,2022_Feb_18_0951,task_complete_blocked_LC_updated,2021.2.3,238.4040283538096,
,,,X,1,,,,,,,,,,,,,,,,,,,,,,,,,,,,,,,,,,,9,0,18,0,,,,,,,,,,,,,,,,,,,,,,,,,,,,,,,,,,,,,,,,,,,,,,,,,,,,,,,,,,,,,,,,,,,,,,,,,,,,,,,,,,,2369.3872080999427,2370.341213699896,1,1,0.3886992000043392,2369.3872080999427,2370.341213699896,2370.331717299996,None,,,,,,,,,,,,,,,,,,,,,,,,,,,,,,,1101,002,1,UA,2022_Feb_18_0951,task_complete_blocked_LC_updated,2021.2.3,238.4040283538096,
,,,O,2,,,,,,,,,,,,,,,,,,,,,,,,,,,,,,,,,,,9,1,19,1,,,,,,,,,,,,,,,,,,,,,,,,,,,,,,,,,,,,,,,,,,,,,,,,,,,,,,,,,,,,,,,,,,,,,,,,,,,,,,,,,,,2370.383990299888,2371.333196299849,2,1,0.37256240006536245,2370.383990299888,2371.333196299849,2371.3299278998747,None,,,,,,,,,,,,,,,,,,,,,,,,,,,,,,,1101,002,1,UA,2022_Feb_18_0951,task_complete_blocked_LC_updated,2021.2.3,238.4040283538096,
,,,X,1,,,,,,,,,,,,,,,,,,,,,,,,,,,,,,,,,,,10,0,20,0,,,,,,,,,,,,,,,,,,,,,,,,,,,,,,,,,,,,,,,,,,,,,,,,,,,,,,,,,,,,,,,,,,,,,,,,,,,,,,,,,,,2371.3821653998457,2372.3320289999247,1,1,0.39148640003986657,2371.3821653998457,2372.3320289999247,2372.3320289999247,2371.3821653998457,,,,,,,,,,,,,,,,,,,,,,,,,,,,,,,1101,002,1,UA,2022_Feb_18_0951,task_complete_blocked_LC_updated,2021.2.3,238.4040283538096,
,,,O,2,,,,,,,,,,,,,,,,,,,,,,,,,,,,,,,,,,,10,1,21,1,,,,,,,,,,,,,,,,,,,,,,,,,,,,,,,,,,,,,,,,,,,,,,,,,,,,,,,,,,,,,,,,,,,,,,,,,,,,,,,,,,,2372.3847087998874,2373.3362417998724,2,1,0.5527886999770999,2372.3847087998874,2373.3362417998724,2373.333128700033,None,,,,,,,,,,,,,,,,,,,,,,,,,,,,,,,1101,002,1,UA,2022_Feb_18_0951,task_complete_blocked_LC_updated,2021.2.3,238.4040283538096,
,,,X,1,,,,,,,,,,,,,,,,,,,,,,,,,,,,,,,,,,,11,0,22,0,,,,,,,,,,,,,,,,,,,,,,,,,,,,,,,,,,,,,,,,,,,,,,,,,,,,,,,,,,,,,,,,,,,,,,,,,,,,,,,,,,,2373.3839014999103,2374.337294799974,1,1,0.47807809989899397,2373.3839014999103,2374.337294799974,2374.3340830998495,None,,,,,,,,,,,,,,,,,,,,,,,,,,,,,,,1101,002,1,UA,2022_Feb_18_0951,task_complete_blocked_LC_updated,2021.2.3,238.4040283538096,
,,,O,2,,,,,,,,,,,,,,,,,,,,,,,,,,,,,,,,,,,11,1,23,1,,,,,,,,,,,,,,,,,,,,,,,,,,,,,,,,,,,,,,,,,,,,,,,,,,,,,,,,,,,,,,,,,,,,,,,,,,,,,,,,,,,2374.3835675998125,2375.3322135999333,2,1,0.41553679993376136,2374.3835675998125,2375.3322135999333,2375.329136099899,None,,,,,,,,,,,,,,,,,,,,,,,,,,,,,,,1101,002,1,UA,2022_Feb_18_0951,task_complete_blocked_LC_updated,2021.2.3,238.4040283538096,
,,,O,2,,,,,,,,,,,,,,,,,,,,,,,,,,,,,,,,,,,12,0,24,1,,,,,,,,,,,,,,,,,,,,,,,,,,,,,,,,,,,,,,,,,,,,,,,,,,,,,,,,,,,,,,,,,,,,,,,,,,,,,,,,,,,2375.3803496998735,2376.329660899937,2,1,0.40019410010427237,2375.3803496998735,2376.329660899937,2376.329660899937,2375.3803496998735,,,,,,,,,,,,,,,,,,,,,,,,,,,,,,,1101,002,1,UA,2022_Feb_18_0951,task_complete_blocked_LC_updated,2021.2.3,238.4040283538096,
,,,X,1,,,,,,,,,,,,,,,,,,,,,,,,,,,,,,,,,,,12,1,25,0,,,,,,,,,,,,,,,,,,,,,,,,,,,,,,,,,,,,,,,,,,,,,,,,,,,,,,,,,,,,,,,,,,,,,,,,,,,,,,,,,,,2376.381241200026,2377.3291914998554,1,1,0.5005552000366151,2376.381241200026,2377.3291914998554,2377.3291914998554,2376.381241200026,,,,,,,,,,,,,,,,,,,,,,,,,,,,,,,1101,002,1,UA,2022_Feb_18_0951,task_complete_blocked_LC_updated,2021.2.3,238.4040283538096,
,,,O,2,,,,,,,,,,,,,,,,,,,,,,,,,,,,,,,,,,,13,0,26,1,,,,,,,,,,,,,,,,,,,,,,,,,,,,,,,,,,,,,,,,,,,,,,,,,,,,,,,,,,,,,,,,,,,,,,,,,,,,,,,,,,,2377.380764100002,2378.334388299845,2,1,0.4348211002070457,2377.380764100002,2378.334388299845,2378.3311357998755,2377.380764100002,,,,,,,,,,,,,,,,,,,,,,,,,,,,,,,1101,002,1,UA,2022_Feb_18_0951,task_complete_blocked_LC_updated,2021.2.3,238.4040283538096,
,,,X,1,,,,,,,,,,,,,,,,,,,,,,,,,,,,,,,,,,,13,1,27,0,,,,,,,,,,,,,,,,,,,,,,,,,,,,,,,,,,,,,,,,,,,,,,,,,,,,,,,,,,,,,,,,,,,,,,,,,,,,,,,,,,,2378.3841186999343,2379.335119499825,1,1,0.4806957000400871,2378.3841186999343,2379.335119499825,2379.332408600021,None,,,,,,,,,,,,,,,,,,,,,,,,,,,,,,,1101,002,1,UA,2022_Feb_18_0951,task_complete_blocked_LC_updated,2021.2.3,238.4040283538096,
,,,X,1,,,,,,,,,,,,,,,,,,,,,,,,,,,,,,,,,,,14,0,28,0,,,,,,,,,,,,,,,,,,,,,,,,,,,,,,,,,,,,,,,,,,,,,,,,,,,,,,,,,,,,,,,,,,,,,,,,,,,,,,,,,,,2379.3844951000065,2380.336362699978,1,1,0.41499030007980764,2379.3844951000065,2380.336362699978,2380.3270588000305,None,,,,,,,,,,,,,,,,,,,,,,,,,,,,,,,1101,002,1,UA,2022_Feb_18_0951,task_complete_blocked_LC_updated,2021.2.3,238.4040283538096,
,,,O,2,,,,,,,,,,,,,,,,,,,,,,,,,,,,,,,,,,,14,1,29,1,,,,,,,,,,,,,,,,,,,,,,,,,,,,,,,,,,,,,,,,,,,,,,,,,,,,,,,,,,,,,,,,,,,,,,,,,,,,,,,,,,,2380.390520500019,2381.3400971998926,2,1,0.4044369999319315,2380.390520500019,2381.3400971998926,2381.33194059995,2380.390520500019,,,,,,,,,,,,,,,,,,,,,,,,,,,,,,,1101,002,1,UA,2022_Feb_18_0951,task_complete_blocked_LC_updated,2021.2.3,238.4040283538096,
,,,X,1,,,,,,,,,,,,,,,,,,,,,,,,,,,,,,,,,,,15,0,30,0,,,,,,,,,,,,,,,,,,,,,,,,,,,,,,,,,,,,,,,,,,,,,,,,,,,,,,,,,,,,,,,,,,,,,,,,,,,,,,,,,,,2381.3848335999064,2382.3356804000214,1,1,0.3918023998849094,2381.3848335999064,2382.3356804000214,2382.332604299998,None,,,,,,,,,,,,,,,,,,,,,,,,,,,,,,,1101,002,1,UA,2022_Feb_18_0951,task_complete_blocked_LC_updated,2021.2.3,238.4040283538096,
