stimImg,taskType,audTrial,letter,correctResponse,familiarCorrect,sourceCorrect,encode_trials1.thisRepN,encode_trials1.thisTrialN,encode_trials1.thisN,encode_trials1.thisIndex,encode_trials2.thisRepN,encode_trials2.thisTrialN,encode_trials2.thisN,encode_trials2.thisIndex,distractor.thisRepN,distractor.thisTrialN,distractor.thisN,distractor.thisIndex,encode_trials3.thisRepN,encode_trials3.thisTrialN,encode_trials3.thisN,encode_trials3.thisIndex,encode_trials4.thisRepN,encode_trials4.thisTrialN,encode_trials4.thisN,encode_trials4.thisIndex,distractor_2.thisRepN,distractor_2.thisTrialN,distractor_2.thisN,distractor_2.thisIndex,encode_trials5.thisRepN,encode_trials5.thisTrialN,encode_trials5.thisN,encode_trials5.thisIndex,encode_trials6.thisRepN,encode_trials6.thisTrialN,encode_trials6.thisN,encode_trials6.thisIndex,distractor3.thisRepN,distractor3.thisTrialN,distractor3.thisN,distractor3.thisIndex,encode_trials7.thisRepN,encode_trials7.thisTrialN,encode_trials7.thisN,encode_trials7.thisIndex,encode_trials8.thisRepN,encode_trials8.thisTrialN,encode_trials8.thisN,encode_trials8.thisIndex,distractor4.thisRepN,distractor4.thisTrialN,distractor4.thisN,distractor4.thisIndex,retrieval_trials1.thisRepN,retrieval_trials1.thisTrialN,retrieval_trials1.thisN,retrieval_trials1.thisIndex,retrieval_trials2.thisRepN,retrieval_trials2.thisTrialN,retrieval_trials2.thisN,retrieval_trials2.thisIndex,retrieval_trials3.thisRepN,retrieval_trials3.thisTrialN,retrieval_trials3.thisN,retrieval_trials3.thisIndex,retrieval_trials4.thisRepN,retrieval_trials4.thisTrialN,retrieval_trials4.thisN,retrieval_trials4.thisIndex,button_check_1.started,button_check_1.stopped,button_check_resp_1.keys,button_check_resp_1.rt,button_check_resp_1.started,button_check_resp_1.stopped,text_2.started,text_2.stopped,key_resp_3.keys,key_resp_3.rt,key_resp_3.started,key_resp_3.stopped,text_3.started,text_3.stopped,key_resp_4.keys,key_resp_4.rt,key_resp_4.started,key_resp_4.stopped,text_4.started,text_4.stopped,key_resp_5.keys,key_resp_5.rt,key_resp_5.started,key_resp_5.stopped,wait_text.started,wait_text.stopped,scanner_pulse.keys,scanner_pulse.rt,scanner_pulse.started,scanner_pulse.stopped,Trial_cue_onset,instruction.started,instruction.stopped,image_3.started,image_3.stopped,in_.started,in_.stopped,source_cue.started,source_cue.stopped,fixation.started,fixation.stopped,Response_cue_onset,rating.started,rating.stopped,text.started,text.stopped,rating_resp.keys,rating_resp.rt,rating_resp.started,rating_resp.stopped,text_16.started,text_16.stopped,instruc.started,instruc.stopped,distractor_task.started,distractor_task.stopped,distractor_task_resp.keys,distractor_task_resp.corr,distractor_task_resp.started,distractor_task_resp.stopped,flicker.started,flicker.stopped,distractor_task_resp.rt,end_screen.started,end_screen.stopped,spacebar_press.keys,spacebar_press.rt,spacebar_press.started,spacebar_press.stopped,one_moment.started,one_moment.stopped,Trial_familiarity_onset,item_rec.started,item_rec.stopped,image_4.started,image_4.stopped,item_rec_guide.started,item_rec_guide.stopped,item_rec_resp.keys,item_rec_resp.corr,item_rec_resp.rt,item_rec_resp.started,item_rec_resp.stopped,Trial_source_onset,source_rec.started,source_rec.stopped,source_rec_resp.keys,source_rec_resp.corr,source_rec_resp.rt,source_rec_resp.started,source_rec_resp.stopped,text_14.started,text_14.stopped,participant,session,group,university,date,expName,psychopyVersion,frameRate,
,,,,,,,,,,,,,,,,,,,,,,,,,,,,,,,,,,,,,,,,,,,,,,,,,,,,,,,,,,,,,,,,,,,,,,,10.8793791999924,None,1,1.8280306000087876,10.8793791999924,None,,,,,,,,,,,,,,,,,,,,,,,,,,,,,,,,,,,,,,,,,,,,,,,,,,,,,,,,,,,,,,,,,,,,,,,,,,,,,,,,,,,,,,,,1101,001,1,1,2022_Jan_31_0946,task_complete_blocked_LC_updated,2021.2.3,244.69381476574637,
,,,,,,,,,,,,,,,,,,,,,,,,,,,,,,,,,,,,,,,,,,,,,,,,,,,,,,,,,,,,,,,,,,,,,,,,,,,,,12.714179100003093,None,2,0.3852881999919191,12.714179100003093,None,,,,,,,,,,,,,,,,,,,,,,,,,,,,,,,,,,,,,,,,,,,,,,,,,,,,,,,,,,,,,,,,,,,,,,,,,,,,,,,,,,1101,001,1,1,2022_Jan_31_0946,task_complete_blocked_LC_updated,2021.2.3,244.69381476574637,
,,,,,,,,,,,,,,,,,,,,,,,,,,,,,,,,,,,,,,,,,,,,,,,,,,,,,,,,,,,,,,,,,,,,,,,,,,,,,,,,,,,13.109530899993842,None,3,0.9340285999933258,13.109530899993842,None,,,,,,,,,,,,,,,,,,,,,,,,,,,,,,,,,,,,,,,,,,,,,,,,,,,,,,,,,,,,,,,,,,,,,,,,,,,,1101,001,1,1,2022_Jan_31_0946,task_complete_blocked_LC_updated,2021.2.3,244.69381476574637,
,,,,,,,,,,,,,,,,,,,,,,,,,,,,,,,,,,,,,,,,,,,,,,,,,,,,,,,,,,,,,,,,,,,,,,,,,,,,,,,,,,,,,,,,,14.052491499984171,None,4,0.675044000003254,14.052491499984171,None,,,,,,,,,,,,,,,,,,,,,,,,,,,,,,,,,,,,,,,,,,,,,,,,,,,,,,,,,,,,,,,,,,,,,,1101,001,1,1,2022_Jan_31_0946,task_complete_blocked_LC_updated,2021.2.3,244.69381476574637,
,,,,,,,,,,,,,,,,,,,,,,,,,,,,,,,,,,,,,,,,,,,,,,,,,,,,,,,,,,,,,,,,,,,,,,,,,,,,,,,,,,,,,,,,,,,,,,,14.735676799988141,None,5,46.5349647999974,14.735676799988141,None,,,,,,,,,,,,,,,,,,,,,,,,,,,,,,,,,,,,,,,,,,,,,,,,,,,,,,,,,,,,,,,,1101,001,1,1,2022_Jan_31_0946,task_complete_blocked_LC_updated,2021.2.3,244.69381476574637,
stimulus_images/Aammonitefo14.jpg,SPACE,1,,,,,0,0,0,2,,,,,,,,,,,,,,,,,,,,,,,,,,,,,,,,,,,,,,,,,,,,,,,,,,,,,,,,,,,,,,,,,,,,,,,,,,,,,,,,,,,,,,,,,,,2.800021320581436e-06,61.3100138999871,63.31019739998737,61.3100138999871,63.31019739998737,62.30413289999706,63.30598119998467,62.30413289999706,63.30598119998467,63.30598119998467,None,5.9837107000057586,67.2828571999853,None,67.2828571999853,None,3,4.962038500001654,67.2828571999853,None,73.2840643999807,None,,,,,,,,,,,,,,,,,,,,,,,,,,,,,,,,,,,,,,,,,,1101,001,1,1,2022_Jan_31_0946,task_complete_blocked_LC_updated,2021.2.3,244.69381476574637,
stimulus_images/A56THUND4.jpg,SPACE,0,,,,,0,1,1,1,,,,,,,,,,,,,,,,,,,,,,,,,,,,,,,,,,,,,,,,,,,,,,,,,,,,,,,,,,,,,,,,,,,,,,,,,,,,,,,,,,,,,,,,,,,12.989187900006073,74.29833659998258,76.2958318000019,74.29833659998258,76.2958318000019,75.29541429999517,76.29337989998749,75.29541429999517,76.29337989998749,76.29337989998749,None,18.991749200009508,80.29144739999902,None,80.29144739999902,None,4,2.905614399991464,80.29144739999902,None,86.29197449999629,None,,,,,,,,,,,,,,,,,,,,,,,,,,,,,,,,,,,,,,,,,,1101,001,1,1,2022_Jan_31_0946,task_complete_blocked_LC_updated,2021.2.3,244.69381476574637,
stimulus_images/Acocktailumb4.jpg,SPACE,0,,,,,0,2,2,8,,,,,,,,,,,,,,,,,,,,,,,,,,,,,,,,,,,,,,,,,,,,,,,,,,,,,,,,,,,,,,,,,,,,,,,,,,,,,,,,,,,,,,,,,,,26.997076300001936,88.30624770000577,90.31309630000032,88.30624770000577,90.31309630000032,89.30384720000438,90.30812159998459,89.30384720000438,90.30812159998459,90.30812159998459,None,33.000048400019296,94.29895249998663,None,94.29895249998663,None,4,1.989380799990613,94.29895249998663,None,100.29739049999625,None,,,,,,,,,,,,,,,,,,,,,,,,,,,,,,,,,,,,,,,,,,1101,001,1,1,2022_Jan_31_0946,task_complete_blocked_LC_updated,2021.2.3,244.69381476574637,
stimulus_images/AARCCHAR2.jpg,SPACE,0,,,,,0,3,3,3,,,,,,,,,,,,,,,,,,,,,,,,,,,,,,,,,,,,,,,,,,,,,,,,,,,,,,,,,,,,,,,,,,,,,,,,,,,,,,,,,,,,,,,,,,,41.00143120001303,102.30283279999276,104.30252070000279,102.30283279999276,104.30252070000279,103.29896610000287,104.30252070000279,103.29896610000287,104.30252070000279,104.29851160000544,None,47.002688000007765,108.3013563999848,None,108.3013563999848,None,2,2.153630199987674,108.3013563999848,None,114.29989289998775,None,,,,,,,,,,,,,,,,,,,,,,,,,,,,,,,,,,,,,,,,,,1101,001,1,1,2022_Jan_31_0946,task_complete_blocked_LC_updated,2021.2.3,244.69381476574637,
stimulus_images/A_coin.jpg,SPACE,0,,,,,0,4,4,0,,,,,,,,,,,,,,,,,,,,,,,,,,,,,,,,,,,,,,,,,,,,,,,,,,,,,,,,,,,,,,,,,,,,,,,,,,,,,,,,,,,,,,,,,,,56.00129400001606,117.31009270000504,119.3122422999877,117.31009270000504,119.3122422999877,118.30798179999692,119.30759389998275,118.30798179999692,119.30759389998275,119.30759389998275,None,62.00441829999909,123.30325599998469,None,123.30325599998469,None,4,2.810804899985669,123.30325599998469,None,129.3021327999886,None,,,,,,,,,,,,,,,,,,,,,,,,,,,,,,,,,,,,,,,,,,1101,001,1,1,2022_Jan_31_0946,task_complete_blocked_LC_updated,2021.2.3,244.69381476574637,
stimulus_images/ACANDLE30.jpg,SPACE,0,,,,,0,5,5,7,,,,,,,,,,,,,,,,,,,,,,,,,,,,,,,,,,,,,,,,,,,,,,,,,,,,,,,,,,,,,,,,,,,,,,,,,,,,,,,,,,,,,,,,,,,70.00641750000068,131.3089767000056,133.31177500000922,131.3089767000056,133.31177500000922,132.30337619999773,133.31177500000922,132.30337619999773,133.31177500000922,133.31177500000922,None,76.00879140000325,137.30757289999747,None,137.30757289999747,None,1,3.2483479999937117,137.30757289999747,None,143.30812279999373,None,,,,,,,,,,,,,,,,,,,,,,,,,,,,,,,,,,,,,,,,,,1101,001,1,1,2022_Jan_31_0946,task_complete_blocked_LC_updated,2021.2.3,244.69381476574637,
stimulus_images/Abottleofbat2.jpg,SPACE,1,,,,,0,6,6,6,,,,,,,,,,,,,,,,,,,,,,,,,,,,,,,,,,,,,,,,,,,,,,,,,,,,,,,,,,,,,,,,,,,,,,,,,,,,,,,,,,,,,,,,,,,83.01010990000213,144.31241660000524,146.31210069998633,144.31241660000524,146.31210069998633,145.31176640000194,146.31210069998633,145.31176640000194,146.31210069998633,146.3090596999973,None,89.01384850000613,150.31265720000374,None,150.31265720000374,None,3,1.4516189999994822,150.31265720000374,None,156.31364730000496,None,,,,,,,,,,,,,,,,,,,,,,,,,,,,,,,,,,,,,,,,,,1101,001,1,1,2022_Jan_31_0946,task_complete_blocked_LC_updated,2021.2.3,244.69381476574637,
stimulus_images/ABALLBEAR.jpg,SPACE,0,,,,,0,7,7,4,,,,,,,,,,,,,,,,,,,,,,,,,,,,,,,,,,,,,,,,,,,,,,,,,,,,,,,,,,,,,,,,,,,,,,,,,,,,,,,,,,,,,,,,,,,98.01931370000239,159.3281136000005,161.32573109999066,159.3281136000005,161.32573109999066,160.32489570000325,161.32573109999066,160.32489570000325,161.32573109999066,161.32573109999066,None,104.0214554000122,165.32104039998376,None,165.32104039998376,None,4,1.440037399996072,165.32104039998376,None,171.31772880000062,None,,,,,,,,,,,,,,,,,,,,,,,,,,,,,,,,,,,,,,,,,,1101,001,1,1,2022_Jan_31_0946,task_complete_blocked_LC_updated,2021.2.3,244.69381476574637,
stimulus_images/Abeaver.jpg,SPACE,0,,,,,0,8,8,5,,,,,,,,,,,,,,,,,,,,,,,,,,,,,,,,,,,,,,,,,,,,,,,,,,,,,,,,,,,,,,,,,,,,,,,,,,,,,,,,,,,,,,,,,,,111.02261120002368,172.33091389999026,174.33559850000893,172.33091389999026,174.33559850000893,173.32968269998673,174.33559850000893,173.32968269998673,174.33559850000893,174.33213560000877,None,117.0259217999992,178.32487089998904,None,178.32487089998904,None,2,1.4527039999957196,178.32487089998904,None,184.32779499999015,None,,,,,,,,,,,,,,,,,,,,,,,,,,,,,,,,,,,,,,,,,,1101,001,1,1,2022_Jan_31_0946,task_complete_blocked_LC_updated,2021.2.3,244.69381476574637,
stimulus_images/ADRYWOOD.jpg,SPACE,0,,,,,0,9,9,9,,,,,,,,,,,,,,,,,,,,,,,,,,,,,,,,,,,,,,,,,,,,,,,,,,,,,,,,,,,,,,,,,,,,,,,,,,,,,,,,,,,,,,,,,,,125.03140609999537,186.35146330000134,188.34999759998755,186.35146330000134,188.34999759998755,187.34644369999296,188.3476384000096,187.34644369999296,188.3476384000096,188.34439429998747,None,131.0340436999977,192.33349439999438,None,192.33349439999438,None,1,1.3036052999959793,192.33349439999438,None,198.33763480000198,None,,,,,,,,,,,,,,,,,,,,,,,,,,,,,,,,,,,,,,,,,,1101,001,1,1,2022_Jan_31_0946,task_complete_blocked_LC_updated,2021.2.3,244.69381476574637,
stimulus_images/A_flower.jpg,SPACE,0,,,,,,,,,0,0,0,7,,,,,,,,,,,,,,,,,,,,,,,,,,,,,,,,,,,,,,,,,,,,,,,,,,,,,,,,,,,,,,,,,,,,,,,,,,,,,,,,,,,,,,,139.04964169999585,200.3581806999864,202.36272079998162,200.3581806999864,202.36272079998162,201.35543160000816,202.36272079998162,201.35543160000816,202.36272079998162,202.3586404999951,None,145.04323040001327,206.34229299999424,None,206.34229299999424,None,3,1.365754400001606,206.34229299999424,None,212.34464229998412,None,,,,,,,,,,,,,,,,,,,,,,,,,,,,,,,,,,,,,,,,,,1101,001,1,1,2022_Jan_31_0946,task_complete_blocked_LC_updated,2021.2.3,244.69381476574637,
stimulus_images/Aribbon21.jpg,SPACE,0,,,,,,,,,0,1,1,3,,,,,,,,,,,,,,,,,,,,,,,,,,,,,,,,,,,,,,,,,,,,,,,,,,,,,,,,,,,,,,,,,,,,,,,,,,,,,,,,,,,,,,,153.04864819999784,214.35103839999647,216.349701500003,214.35103839999647,216.349701500003,215.34669599999324,216.34667329999502,215.34669599999324,216.34667329999502,216.34667329999502,None,159.0487018999993,220.34709080000175,None,220.34709080000175,None,4,1.088868699996965,220.34709080000175,None,226.35081259999424,None,,,,,,,,,,,,,,,,,,,,,,,,,,,,,,,,,,,,,,,,,,1101,001,1,1,2022_Jan_31_0946,task_complete_blocked_LC_updated,2021.2.3,244.69381476574637,
stimulus_images/AGLASSFL4.jpg,SPACE,1,,,,,,,,,0,2,2,0,,,,,,,,,,,,,,,,,,,,,,,,,,,,,,,,,,,,,,,,,,,,,,,,,,,,,,,,,,,,,,,,,,,,,,,,,,,,,,,,,,,,,,,166.0523965000175,227.35533049999503,229.3573126999836,227.35533049999503,229.3573126999836,228.35044259999995,229.35330689998227,228.35044259999995,229.35330689998227,229.34994859999279,None,172.0525569000165,233.35115659999428,None,233.35115659999428,None,2,1.1704473000136204,233.35115659999428,None,239.35173500000383,None,,,,,,,,,,,,,,,,,,,,,,,,,,,,,,,,,,,,,,,,,,1101,001,1,1,2022_Jan_31_0946,task_complete_blocked_LC_updated,2021.2.3,244.69381476574637,
stimulus_images/AABSTRACT.jpg,SPACE,1,,,,,,,,,0,3,3,8,,,,,,,,,,,,,,,,,,,,,,,,,,,,,,,,,,,,,,,,,,,,,,,,,,,,,,,,,,,,,,,,,,,,,,,,,,,,,,,,,,,,,,,180.05709320001188,241.36014380000415,243.3595151999907,241.36014380000415,243.3595151999907,242.35341589999734,243.35641020000912,242.35341589999734,243.35641020000912,243.35274679999566,None,186.05732799999532,247.35589059998165,None,247.35589059998165,None,3,2.5178442999895196,247.35589059998165,None,253.35649649999687,None,,,,,,,,,,,,,,,,,,,,,,,,,,,,,,,,,,,,,,,,,,1101,001,1,1,2022_Jan_31_0946,task_complete_blocked_LC_updated,2021.2.3,244.69381476574637,
stimulus_images/beanbagchair.jpg,SPACE,0,,,,,,,,,0,4,4,5,,,,,,,,,,,,,,,,,,,,,,,,,,,,,,,,,,,,,,,,,,,,,,,,,,,,,,,,,,,,,,,,,,,,,,,,,,,,,,,,,,,,,,,195.0612778000068,256.37016429999494,258.3711025000084,256.37016429999494,258.3711025000084,257.36789520000457,258.3679644000076,257.36789520000457,258.3679644000076,258.3679644000076,None,201.06387600000016,262.362862399983,None,262.362862399983,None,4,1.446952300000703,262.362862399983,None,268.36317319999216,None,,,,,,,,,,,,,,,,,,,,,,,,,,,,,,,,,,,,,,,,,,1101,001,1,1,2022_Jan_31_0946,task_complete_blocked_LC_updated,2021.2.3,244.69381476574637,
stimulus_images/Astereo30.jpg,SPACE,1,,,,,,,,,0,5,5,4,,,,,,,,,,,,,,,,,,,,,,,,,,,,,,,,,,,,,,,,,,,,,,,,,,,,,,,,,,,,,,,,,,,,,,,,,,,,,,,,,,,,,,,210.0655196000007,271.3676606999943,273.36923159999424,271.3676606999943,273.36923159999424,272.36403349999455,273.3660111000063,272.36403349999455,273.3660111000063,273.3620405999827,None,216.0658495000098,277.36435230000643,None,277.36435230000643,None,3,1.7422662999888416,277.36435230000643,None,283.36491450000904,None,,,,,,,,,,,,,,,,,,,,,,,,,,,,,,,,,,,,,,,,,,1101,001,1,1,2022_Jan_31_0946,task_complete_blocked_LC_updated,2021.2.3,244.69381476574637,
stimulus_images/AHIGCHAIR.jpg,SPACE,0,,,,,,,,,0,6,6,1,,,,,,,,,,,,,,,,,,,,,,,,,,,,,,,,,,,,,,,,,,,,,,,,,,,,,,,,,,,,,,,,,,,,,,,,,,,,,,,,,,,,,,,223.070186500001,284.37337149999803,286.3753487000067,284.37337149999803,286.3753487000067,285.36710669999593,286.36687969998457,285.36710669999593,286.36687969998457,286.36687969998457,None,229.06990410000435,290.3681515000062,None,290.3681515000062,None,2,1.2086506999912672,290.3681515000062,None,296.3693235999963,None,,,,,,,,,,,,,,,,,,,,,,,,,,,,,,,,,,,,,,,,,,1101,001,1,1,2022_Jan_31_0946,task_complete_blocked_LC_updated,2021.2.3,244.69381476574637,
stimulus_images/AMUSISTA2.jpg,SPACE,0,,,,,,,,,0,7,7,2,,,,,,,,,,,,,,,,,,,,,,,,,,,,,,,,,,,,,,,,,,,,,,,,,,,,,,,,,,,,,,,,,,,,,,,,,,,,,,,,,,,,,,,238.07377149999957,299.38265640000463,301.38449669998954,299.38265640000463,301.38449669998954,300.3798536999966,301.3811824999866,300.3798536999966,301.3811824999866,301.3811824999866,None,244.07646130002104,305.37528809998184,None,305.37528809998184,None,2,1.3012624999973923,305.37528809998184,None,311.37404699999024,None,,,,,,,,,,,,,,,,,,,,,,,,,,,,,,,,,,,,,,,,,,1101,001,1,1,2022_Jan_31_0946,task_complete_blocked_LC_updated,2021.2.3,244.69381476574637,
stimulus_images/Aancientston3.jpg,SPACE,0,,,,,,,,,0,8,8,9,,,,,,,,,,,,,,,,,,,,,,,,,,,,,,,,,,,,,,,,,,,,,,,,,,,,,,,,,,,,,,,,,,,,,,,,,,,,,,,,,,,,,,,251.07833810002194,312.3870065000083,314.38932529999875,312.3870065000083,314.38932529999875,313.38420279999264,314.38611170000513,313.38420279999264,314.38611170000513,314.38611170000513,None,257.08084880001843,318.3799517999869,None,318.3799517999869,None,1,1.0543174999766052,318.3799517999869,None,324.3823267999978,None,,,,,,,,,,,,,,,,,,,,,,,,,,,,,,,,,,,,,,,,,,1101,001,1,1,2022_Jan_31_0946,task_complete_blocked_LC_updated,2021.2.3,244.69381476574637,
stimulus_images/weddingdress.jpg,SPACE,0,,,,,,,,,0,9,9,6,,,,,,,,,,,,,,,,,,,,,,,,,,,,,,,,,,,,,,,,,,,,,,,,,,,,,,,,,,,,,,,,,,,,,,,,,,,,,,,,,,,,,,,265.0868283000018,326.3893991000077,328.3904441999912,326.3893991000077,328.3904441999912,327.3880964999844,328.3904441999912,327.3880964999844,328.3904441999912,328.3871235999977,None,271.08936860001995,332.3882927999948,None,332.3882927999948,None,3,1.1613166000170168,332.3882927999948,None,338.3929690000077,None,,,,,,,,,,,,,,,,,,,,,,,,,,,,,,,,,,,,,,,,,,1101,001,1,1,2022_Jan_31_0946,task_complete_blocked_LC_updated,2021.2.3,244.69381476574637,
,,,X,1,,,,,,,,,,,0,0,0,0,,,,,,,,,,,,,,,,,,,,,,,,,,,,,,,,,,,,,,,,,,,,,,,,,,,,,,,,,,,,,,,,,,,,,,,,,,,,,,,,,,,,,,,,,,,,,,,,,,,,,,,,,341.39342869998654,None,344.40413449998596,345.3563792000059,None,0,344.40413449998596,345.3563792000059,345.3526245999965,None,,,,,,,,,,,,,,,,,,,,,,,,,,,,,,,,1101,001,1,1,2022_Jan_31_0946,task_complete_blocked_LC_updated,2021.2.3,244.69381476574637,
,,,O,2,,,,,,,,,,,0,1,1,1,,,,,,,,,,,,,,,,,,,,,,,,,,,,,,,,,,,,,,,,,,,,,,,,,,,,,,,,,,,,,,,,,,,,,,,,,,,,,,,,,,,,,,,,,,,,,,,,,,,,,,,,,,,345.39905919999,346.3495539999858,None,0,345.39905919999,346.3495539999858,346.34614700000384,None,,,,,,,,,,,,,,,,,,,,,,,,,,,,,,,,1101,001,1,1,2022_Jan_31_0946,task_complete_blocked_LC_updated,2021.2.3,244.69381476574637,
,,,X,1,,,,,,,,,,,1,0,2,0,,,,,,,,,,,,,,,,,,,,,,,,,,,,,,,,,,,,,,,,,,,,,,,,,,,,,,,,,,,,,,,,,,,,,,,,,,,,,,,,,,,,,,,,,,,,,,,,,,,,,,,,,,,346.4027442999941,347.3517001,1,1,346.4027442999941,347.3517001,347.3493324999872,None,0.45513720001326874,,,,,,,,,,,,,,,,,,,,,,,,,,,,,,,1101,001,1,1,2022_Jan_31_0946,task_complete_blocked_LC_updated,2021.2.3,244.69381476574637,
,,,O,2,,,,,,,,,,,1,1,3,1,,,,,,,,,,,,,,,,,,,,,,,,,,,,,,,,,,,,,,,,,,,,,,,,,,,,,,,,,,,,,,,,,,,,,,,,,,,,,,,,,,,,,,,,,,,,,,,,,,,,,,,,,,,347.39734920000774,348.3511552999844,2,1,347.39734920000774,348.3511552999844,348.3467345999961,None,0.30700549998437054,,,,,,,,,,,,,,,,,,,,,,,,,,,,,,,1101,001,1,1,2022_Jan_31_0946,task_complete_blocked_LC_updated,2021.2.3,244.69381476574637,
,,,X,1,,,,,,,,,,,2,0,4,0,,,,,,,,,,,,,,,,,,,,,,,,,,,,,,,,,,,,,,,,,,,,,,,,,,,,,,,,,,,,,,,,,,,,,,,,,,,,,,,,,,,,,,,,,,,,,,,,,,,,,,,,,,,348.397887900006,349.35103950000484,1,1,348.397887900006,349.35103950000484,349.34168939999654,None,0.31371560000116006,,,,,,,,,,,,,,,,,,,,,,,,,,,,,,,1101,001,1,1,2022_Jan_31_0946,task_complete_blocked_LC_updated,2021.2.3,244.69381476574637,
,,,O,2,,,,,,,,,,,2,1,5,1,,,,,,,,,,,,,,,,,,,,,,,,,,,,,,,,,,,,,,,,,,,,,,,,,,,,,,,,,,,,,,,,,,,,,,,,,,,,,,,,,,,,,,,,,,,,,,,,,,,,,,,,,,,349.39453779999167,350.34822919999715,2,1,349.39453779999167,350.34822919999715,350.34449499999755,349.39453779999167,0.13629380002385005,,,,,,,,,,,,,,,,,,,,,,,,,,,,,,,1101,001,1,1,2022_Jan_31_0946,task_complete_blocked_LC_updated,2021.2.3,244.69381476574637,
,,,O,2,,,,,,,,,,,3,0,6,1,,,,,,,,,,,,,,,,,,,,,,,,,,,,,,,,,,,,,,,,,,,,,,,,,,,,,,,,,,,,,,,,,,,,,,,,,,,,,,,,,,,,,,,,,,,,,,,,,,,,,,,,,,,350.3971504000074,351.3507935999951,2,1,350.3971504000074,351.3507935999951,351.34132219999447,None,0.4306305999925826,,,,,,,,,,,,,,,,,,,,,,,,,,,,,,,1101,001,1,1,2022_Jan_31_0946,task_complete_blocked_LC_updated,2021.2.3,244.69381476574637,
,,,X,1,,,,,,,,,,,3,1,7,0,,,,,,,,,,,,,,,,,,,,,,,,,,,,,,,,,,,,,,,,,,,,,,,,,,,,,,,,,,,,,,,,,,,,,,,,,,,,,,,,,,,,,,,,,,,,,,,,,,,,,,,,,,,351.39469960000133,352.34692209999776,1,1,351.39469960000133,352.34692209999776,352.3435862000042,351.39469960000133,0.494028499990236,,,,,,,,,,,,,,,,,,,,,,,,,,,,,,,1101,001,1,1,2022_Jan_31_0946,task_complete_blocked_LC_updated,2021.2.3,244.69381476574637,
,,,X,1,,,,,,,,,,,4,0,8,0,,,,,,,,,,,,,,,,,,,,,,,,,,,,,,,,,,,,,,,,,,,,,,,,,,,,,,,,,,,,,,,,,,,,,,,,,,,,,,,,,,,,,,,,,,,,,,,,,,,,,,,,,,,352.39661409999826,353.3512124999834,1,1,352.39661409999826,353.3512124999834,353.34793220000574,None,0.4673309000208974,,,,,,,,,,,,,,,,,,,,,,,,,,,,,,,1101,001,1,1,2022_Jan_31_0946,task_complete_blocked_LC_updated,2021.2.3,244.69381476574637,
,,,O,2,,,,,,,,,,,4,1,9,1,,,,,,,,,,,,,,,,,,,,,,,,,,,,,,,,,,,,,,,,,,,,,,,,,,,,,,,,,,,,,,,,,,,,,,,,,,,,,,,,,,,,,,,,,,,,,,,,,,,,,,,,,,,353.39765679999255,354.3499753999931,2,1,353.39765679999255,354.3499753999931,354.34563930000877,None,0.3721479000232648,,,,,,,,,,,,,,,,,,,,,,,,,,,,,,,1101,001,1,1,2022_Jan_31_0946,task_complete_blocked_LC_updated,2021.2.3,244.69381476574637,
,,,O,2,,,,,,,,,,,5,0,10,1,,,,,,,,,,,,,,,,,,,,,,,,,,,,,,,,,,,,,,,,,,,,,,,,,,,,,,,,,,,,,,,,,,,,,,,,,,,,,,,,,,,,,,,,,,,,,,,,,,,,,,,,,,,354.39526719998685,355.3465162999928,2,1,354.39526719998685,355.3465162999928,355.3432487999962,None,0.37028750000172295,,,,,,,,,,,,,,,,,,,,,,,,,,,,,,,1101,001,1,1,2022_Jan_31_0946,task_complete_blocked_LC_updated,2021.2.3,244.69381476574637,
,,,X,1,,,,,,,,,,,5,1,11,0,,,,,,,,,,,,,,,,,,,,,,,,,,,,,,,,,,,,,,,,,,,,,,,,,,,,,,,,,,,,,,,,,,,,,,,,,,,,,,,,,,,,,,,,,,,,,,,,,,,,,,,,,,,355.395926600002,356.34394940000493,1,1,355.395926600002,356.34394940000493,356.34394940000493,355.395926600002,0.4202140999841504,,,,,,,,,,,,,,,,,,,,,,,,,,,,,,,1101,001,1,1,2022_Jan_31_0946,task_complete_blocked_LC_updated,2021.2.3,244.69381476574637,
,,,X,1,,,,,,,,,,,6,0,12,0,,,,,,,,,,,,,,,,,,,,,,,,,,,,,,,,,,,,,,,,,,,,,,,,,,,,,,,,,,,,,,,,,,,,,,,,,,,,,,,,,,,,,,,,,,,,,,,,,,,,,,,,,,,356.39790779998293,357.35073760000523,1,1,356.39790779998293,357.35073760000523,357.3424812000012,None,0.47486690001096576,,,,,,,,,,,,,,,,,,,,,,,,,,,,,,,1101,001,1,1,2022_Jan_31_0946,task_complete_blocked_LC_updated,2021.2.3,244.69381476574637,
,,,O,2,,,,,,,,,,,6,1,13,1,,,,,,,,,,,,,,,,,,,,,,,,,,,,,,,,,,,,,,,,,,,,,,,,,,,,,,,,,,,,,,,,,,,,,,,,,,,,,,,,,,,,,,,,,,,,,,,,,,,,,,,,,,,357.39585939998506,358.34872909999103,None,0,357.39585939998506,358.34872909999103,358.345470500004,357.39585939998506,,,,,,,,,,,,,,,,,,,,,,,,,,,,,,,,1101,001,1,1,2022_Jan_31_0946,task_complete_blocked_LC_updated,2021.2.3,244.69381476574637,
,,,O,2,,,,,,,,,,,7,0,14,1,,,,,,,,,,,,,,,,,,,,,,,,,,,,,,,,,,,,,,,,,,,,,,,,,,,,,,,,,,,,,,,,,,,,,,,,,,,,,,,,,,,,,,,,,,,,,,,,,,,,,,,,,,,358.396579799999,359.3492784999835,2,1,358.396579799999,359.3492784999835,359.3408153000055,None,0.3728715000033844,,,,,,,,,,,,,,,,,,,,,,,,,,,,,,,1101,001,1,1,2022_Jan_31_0946,task_complete_blocked_LC_updated,2021.2.3,244.69381476574637,
,,,X,1,,,,,,,,,,,7,1,15,0,,,,,,,,,,,,,,,,,,,,,,,,,,,,,,,,,,,,,,,,,,,,,,,,,,,,,,,,,,,,,,,,,,,,,,,,,,,,,,,,,,,,,,,,,,,,,,,,,,,,,,,,,,,359.395348799997,360.3475513999874,1,1,359.395348799997,360.3475513999874,360.34424430000945,359.395348799997,0.539711499994155,,,,,,,,,,,,,,,,,,,,,,,,,,,,,,,1101,001,1,1,2022_Jan_31_0946,task_complete_blocked_LC_updated,2021.2.3,244.69381476574637,
,,,O,2,,,,,,,,,,,8,0,16,1,,,,,,,,,,,,,,,,,,,,,,,,,,,,,,,,,,,,,,,,,,,,,,,,,,,,,,,,,,,,,,,,,,,,,,,,,,,,,,,,,,,,,,,,,,,,,,,,,,,,,,,,,,,360.40249730000505,361.3518010999833,2,1,360.40249730000505,361.3518010999833,361.34341850000783,None,0.5232518999837339,,,,,,,,,,,,,,,,,,,,,,,,,,,,,,,1101,001,1,1,2022_Jan_31_0946,task_complete_blocked_LC_updated,2021.2.3,244.69381476574637,
,,,X,1,,,,,,,,,,,8,1,17,0,,,,,,,,,,,,,,,,,,,,,,,,,,,,,,,,,,,,,,,,,,,,,,,,,,,,,,,,,,,,,,,,,,,,,,,,,,,,,,,,,,,,,,,,,,,,,,,,,,,,,,,,,,,361.39561279999907,362.343687399989,1,1,361.39561279999907,362.343687399989,362.343687399989,361.39561279999907,0.7421727000037208,,,,,,,,,,,,,,,,,,,,,,,,,,,,,,,1101,001,1,1,2022_Jan_31_0946,task_complete_blocked_LC_updated,2021.2.3,244.69381476574637,
,,,O,2,,,,,,,,,,,9,0,18,1,,,,,,,,,,,,,,,,,,,,,,,,,,,,,,,,,,,,,,,,,,,,,,,,,,,,,,,,,,,,,,,,,,,,,,,,,,,,,,,,,,,,,,,,,,,,,,,,,,,,,,,,,,,362.39759700000286,363.34664450000855,2,1,362.39759700000286,363.34664450000855,363.343432499998,None,0.4940451000002213,,,,,,,,,,,,,,,,,,,,,,,,,,,,,,,1101,001,1,1,2022_Jan_31_0946,task_complete_blocked_LC_updated,2021.2.3,244.69381476574637,
,,,X,1,,,,,,,,,,,9,1,19,0,,,,,,,,,,,,,,,,,,,,,,,,,,,,,,,,,,,,,,,,,,,,,,,,,,,,,,,,,,,,,,,,,,,,,,,,,,,,,,,,,,,,,,,,,,,,,,,,,,,,,,,,,,,363.39555719998316,364.35553800000343,1,1,363.39555719998316,364.35553800000343,364.3468872999947,363.39555719998316,0.3611613999819383,,,,,,,,,,,,,,,,,,,,,,,,,,,,,,,1101,001,1,1,2022_Jan_31_0946,task_complete_blocked_LC_updated,2021.2.3,244.69381476574637,
,,,X,1,,,,,,,,,,,10,0,20,0,,,,,,,,,,,,,,,,,,,,,,,,,,,,,,,,,,,,,,,,,,,,,,,,,,,,,,,,,,,,,,,,,,,,,,,,,,,,,,,,,,,,,,,,,,,,,,,,,,,,,,,,,,,364.3966639999999,365.3474132999836,1,1,364.3966639999999,365.3474132999836,365.344096899993,None,0.4731647000007797,,,,,,,,,,,,,,,,,,,,,,,,,,,,,,,1101,001,1,1,2022_Jan_31_0946,task_complete_blocked_LC_updated,2021.2.3,244.69381476574637,
,,,O,2,,,,,,,,,,,10,1,21,1,,,,,,,,,,,,,,,,,,,,,,,,,,,,,,,,,,,,,,,,,,,,,,,,,,,,,,,,,,,,,,,,,,,,,,,,,,,,,,,,,,,,,,,,,,,,,,,,,,,,,,,,,,,365.397613899986,366.35122219999903,2,1,365.397613899986,366.35122219999903,366.34708119998686,None,0.33538959998986684,,,,,,,,,,,,,,,,,,,,,,,,,,,,,,,1101,001,1,1,2022_Jan_31_0946,task_complete_blocked_LC_updated,2021.2.3,244.69381476574637,
,,,X,1,,,,,,,,,,,11,0,22,0,,,,,,,,,,,,,,,,,,,,,,,,,,,,,,,,,,,,,,,,,,,,,,,,,,,,,,,,,,,,,,,,,,,,,,,,,,,,,,,,,,,,,,,,,,,,,,,,,,,,,,,,,,,366.39772479998646,367.35308679999434,1,1,366.39772479998646,367.35308679999434,367.3499740999832,None,0.5771106999891344,,,,,,,,,,,,,,,,,,,,,,,,,,,,,,,1101,001,1,1,2022_Jan_31_0946,task_complete_blocked_LC_updated,2021.2.3,244.69381476574637,
,,,O,2,,,,,,,,,,,11,1,23,1,,,,,,,,,,,,,,,,,,,,,,,,,,,,,,,,,,,,,,,,,,,,,,,,,,,,,,,,,,,,,,,,,,,,,,,,,,,,,,,,,,,,,,,,,,,,,,,,,,,,,,,,,,,367.3999388999946,368.35131810000166,2,1,367.3999388999946,368.35131810000166,368.3489968999929,None,0.3449248999822885,,,,,,,,,,,,,,,,,,,,,,,,,,,,,,,1101,001,1,1,2022_Jan_31_0946,task_complete_blocked_LC_updated,2021.2.3,244.69381476574637,
,,,O,2,,,,,,,,,,,12,0,24,1,,,,,,,,,,,,,,,,,,,,,,,,,,,,,,,,,,,,,,,,,,,,,,,,,,,,,,,,,,,,,,,,,,,,,,,,,,,,,,,,,,,,,,,,,,,,,,,,,,,,,,,,,,,368.3965759999992,369.3473399000068,2,1,368.3965759999992,369.3473399000068,369.3443286999827,None,0.3533575000183191,,,,,,,,,,,,,,,,,,,,,,,,,,,,,,,1101,001,1,1,2022_Jan_31_0946,task_complete_blocked_LC_updated,2021.2.3,244.69381476574637,
,,,X,1,,,,,,,,,,,12,1,25,0,,,,,,,,,,,,,,,,,,,,,,,,,,,,,,,,,,,,,,,,,,,,,,,,,,,,,,,,,,,,,,,,,,,,,,,,,,,,,,,,,,,,,,,,,,,,,,,,,,,,,,,,,,,369.3985743999947,370.3470424999832,1,1,369.3985743999947,370.3470424999832,370.3470424999832,None,0.5130808999820147,,,,,,,,,,,,,,,,,,,,,,,,,,,,,,,1101,001,1,1,2022_Jan_31_0946,task_complete_blocked_LC_updated,2021.2.3,244.69381476574637,
,,,X,1,,,,,,,,,,,13,0,26,0,,,,,,,,,,,,,,,,,,,,,,,,,,,,,,,,,,,,,,,,,,,,,,,,,,,,,,,,,,,,,,,,,,,,,,,,,,,,,,,,,,,,,,,,,,,,,,,,,,,,,,,,,,,370.3967510999937,371.3457504999824,1,1,370.3967510999937,371.3457504999824,371.34308679998503,None,0.4429060000111349,,,,,,,,,,,,,,,,,,,,,,,,,,,,,,,1101,001,1,1,2022_Jan_31_0946,task_complete_blocked_LC_updated,2021.2.3,244.69381476574637,
,,,O,2,,,,,,,,,,,13,1,27,1,,,,,,,,,,,,,,,,,,,,,,,,,,,,,,,,,,,,,,,,,,,,,,,,,,,,,,,,,,,,,,,,,,,,,,,,,,,,,,,,,,,,,,,,,,,,,,,,,,,,,,,,,,,371.39596759999404,372.34474909998244,2,1,371.39596759999404,372.34474909998244,372.341366299981,371.39596759999404,0.5407310999871697,,,,,,,,,,,,,,,,,,,,,,,,,,,,,,,1101,001,1,1,2022_Jan_31_0946,task_complete_blocked_LC_updated,2021.2.3,244.69381476574637,
,,,O,2,,,,,,,,,,,14,0,28,1,,,,,,,,,,,,,,,,,,,,,,,,,,,,,,,,,,,,,,,,,,,,,,,,,,,,,,,,,,,,,,,,,,,,,,,,,,,,,,,,,,,,,,,,,,,,,,,,,,,,,,,,,,,372.3942284999939,373.3445709999942,2,1,372.3942284999939,373.3445709999942,373.3415296000021,372.3942284999939,0.4193817999912426,,,,,,,,,,,,,,,,,,,,,,,,,,,,,,,1101,001,1,1,2022_Jan_31_0946,task_complete_blocked_LC_updated,2021.2.3,244.69381476574637,
,,,X,1,,,,,,,,,,,14,1,29,0,,,,,,,,,,,,,,,,,,,,,,,,,,,,,,,,,,,,,,,,,,,,,,,,,,,,,,,,,,,,,,,,,,,,,,,,,,,,,,,,,,,,,,,,,,,,,,,,,,,,,,,,,,,373.3954880000092,374.34675500000594,1,1,373.3954880000092,374.34675500000594,374.3428738999937,373.3954880000092,0.5038268000062089,,,,,,,,,,,,,,,,,,,,,,,,,,,,,,,1101,001,1,1,2022_Jan_31_0946,task_complete_blocked_LC_updated,2021.2.3,244.69381476574637,
,,,X,1,,,,,,,,,,,15,0,30,0,,,,,,,,,,,,,,,,,,,,,,,,,,,,,,,,,,,,,,,,,,,,,,,,,,,,,,,,,,,,,,,,,,,,,,,,,,,,,,,,,,,,,,,,,,,,,,,,,,,,,,,,,,,374.3952997000015,375.34674929999164,1,1,374.3952997000015,375.34674929999164,375.34355940000387,374.3952997000015,0.41832130000693724,,,,,,,,,,,,,,,,,,,,,,,,,,,,,,,1101,001,1,1,2022_Jan_31_0946,task_complete_blocked_LC_updated,2021.2.3,244.69381476574637,
,,,O,2,,,,,,,,,,,15,1,31,1,,,,,,,,,,,,,,,,,,,,,,,,,,,,,,,,,,,,,,,,,,,,,,,,,,,,,,,,,,,,,,,,,,,,,,,,,,,,,,,,,,,,,,,,,,,,,,,,,,,,,,,,,,,375.394739499985,376.3427651000093,2,1,375.394739499985,376.3427651000093,376.3427651000093,375.394739499985,0.36212089998298325,,,,,,,,,,,,,,,,,,,,,,,,,,,,,,,1101,001,1,1,2022_Jan_31_0946,task_complete_blocked_LC_updated,2021.2.3,244.69381476574637,
,,,X,1,,,,,,,,,,,16,0,32,0,,,,,,,,,,,,,,,,,,,,,,,,,,,,,,,,,,,,,,,,,,,,,,,,,,,,,,,,,,,,,,,,,,,,,,,,,,,,,,,,,,,,,,,,,,,,,,,,,,,,,,,,,,,376.3952075999987,377.3446983000031,1,1,376.3952075999987,377.3446983000031,377.3446983000031,376.3952075999987,0.4037827999854926,,,,,,,,,,,,,,,,,,,,,,,,,,,,,,,1101,001,1,1,2022_Jan_31_0946,task_complete_blocked_LC_updated,2021.2.3,244.69381476574637,
,,,O,2,,,,,,,,,,,16,1,33,1,,,,,,,,,,,,,,,,,,,,,,,,,,,,,,,,,,,,,,,,,,,,,,,,,,,,,,,,,,,,,,,,,,,,,,,,,,,,,,,,,,,,,,,,,,,,,,,,,,,,,,,,,,,377.3980645999836,378.3500517999928,2,1,377.3980645999836,378.3500517999928,378.34665180000593,None,0.3195471000217367,,,,,,,,,,,,,,,,,,,,,,,,,,,,,,,1101,001,1,1,2022_Jan_31_0946,task_complete_blocked_LC_updated,2021.2.3,244.69381476574637,
,,,O,2,,,,,,,,,,,17,0,34,1,,,,,,,,,,,,,,,,,,,,,,,,,,,,,,,,,,,,,,,,,,,,,,,,,,,,,,,,,,,,,,,,,,,,,,,,,,,,,,,,,,,,,,,,,,,,,,,,,,,,,,,,,,,378.4020492999989,379.3531068000011,2,1,378.4020492999989,379.3531068000011,379.3474838999973,None,0.36468369999784045,,,,,,,,,,,,,,,,,,,,,,,,,,,,,,,1101,001,1,1,2022_Jan_31_0946,task_complete_blocked_LC_updated,2021.2.3,244.69381476574637,
,,,X,1,,,,,,,,,,,17,1,35,0,,,,,,,,,,,,,,,,,,,,,,,,,,,,,,,,,,,,,,,,,,,,,,,,,,,,,,,,,,,,,,,,,,,,,,,,,,,,,,,,,,,,,,,,,,,,,,,,,,,,,,,,,,,379.3979751000006,380.3486774000048,1,1,379.3979751000006,380.3486774000048,380.3461324000091,None,0.46286179998423904,,,,,,,,,,,,,,,,,,,,,,,,,,,,,,,1101,001,1,1,2022_Jan_31_0946,task_complete_blocked_LC_updated,2021.2.3,244.69381476574637,
,,,X,1,,,,,,,,,,,18,0,36,0,,,,,,,,,,,,,,,,,,,,,,,,,,,,,,,,,,,,,,,,,,,,,,,,,,,,,,,,,,,,,,,,,,,,,,,,,,,,,,,,,,,,,,,,,,,,,,,,,,,,,,,,,,,380.39669200000935,381.34671690000687,1,1,380.39669200000935,381.34671690000687,381.3437559999875,None,0.41217219998361543,,,,,,,,,,,,,,,,,,,,,,,,,,,,,,,1101,001,1,1,2022_Jan_31_0946,task_complete_blocked_LC_updated,2021.2.3,244.69381476574637,
,,,O,2,,,,,,,,,,,18,1,37,1,,,,,,,,,,,,,,,,,,,,,,,,,,,,,,,,,,,,,,,,,,,,,,,,,,,,,,,,,,,,,,,,,,,,,,,,,,,,,,,,,,,,,,,,,,,,,,,,,,,,,,,,,,,381.39684050000506,382.3499366999895,2,1,381.39684050000506,382.3499366999895,382.34670009999536,None,0.35212830000091344,,,,,,,,,,,,,,,,,,,,,,,,,,,,,,,1101,001,1,1,2022_Jan_31_0946,task_complete_blocked_LC_updated,2021.2.3,244.69381476574637,
,,,O,2,,,,,,,,,,,19,0,38,1,,,,,,,,,,,,,,,,,,,,,,,,,,,,,,,,,,,,,,,,,,,,,,,,,,,,,,,,,,,,,,,,,,,,,,,,,,,,,,,,,,,,,,,,,,,,,,,,,,,,,,,,,,,382.3970546000055,383.34670170000754,2,1,382.3970546000055,383.34670170000754,383.34302599998773,None,0.27184159998432733,,,,,,,,,,,,,,,,,,,,,,,,,,,,,,,1101,001,1,1,2022_Jan_31_0946,task_complete_blocked_LC_updated,2021.2.3,244.69381476574637,
,,,X,1,,,,,,,,,,,19,1,39,0,,,,,,,,,,,,,,,,,,,,,,,,,,,,,,,,,,,,,,,,,,,,,,,,,,,,,,,,,,,,,,,,,,,,,,,,,,,,,,,,,,,,,,,,,,,,,,,,,,,,,,,,,,,383.3958820999833,384.3456906999927,1,1,383.3958820999833,384.3456906999927,384.3422294000047,383.3958820999833,0.5278379999799654,,,,,,,,,,,,,,,,,,,,,,,,,,,,,,,1101,001,1,1,2022_Jan_31_0946,task_complete_blocked_LC_updated,2021.2.3,244.69381476574637,
,,,X,1,,,,,,,,,,,20,0,40,0,,,,,,,,,,,,,,,,,,,,,,,,,,,,,,,,,,,,,,,,,,,,,,,,,,,,,,,,,,,,,,,,,,,,,,,,,,,,,,,,,,,,,,,,,,,,,,,,,,,,,,,,,,,384.3987086999987,385.349172599992,1,1,384.3987086999987,385.349172599992,385.3465475999983,384.3987086999987,0.44739929999923334,,,,,,,,,,,,,,,,,,,,,,,,,,,,,,,1101,001,1,1,2022_Jan_31_0946,task_complete_blocked_LC_updated,2021.2.3,244.69381476574637,
,,,O,2,,,,,,,,,,,20,1,41,1,,,,,,,,,,,,,,,,,,,,,,,,,,,,,,,,,,,,,,,,,,,,,,,,,,,,,,,,,,,,,,,,,,,,,,,,,,,,,,,,,,,,,,,,,,,,,,,,,,,,,,,,,,,385.39750180000556,386.3498331999872,2,1,385.39750180000556,386.3498331999872,386.3468103999912,None,0.40794830000959337,,,,,,,,,,,,,,,,,,,,,,,,,,,,,,,1101,001,1,1,2022_Jan_31_0946,task_complete_blocked_LC_updated,2021.2.3,244.69381476574637,
,,,O,2,,,,,,,,,,,21,0,42,1,,,,,,,,,,,,,,,,,,,,,,,,,,,,,,,,,,,,,,,,,,,,,,,,,,,,,,,,,,,,,,,,,,,,,,,,,,,,,,,,,,,,,,,,,,,,,,,,,,,,,,,,,,,386.39742910000496,387.3483117999858,2,1,386.39742910000496,387.3483117999858,387.344970599981,None,0.3621786000148859,,,,,,,,,,,,,,,,,,,,,,,,,,,,,,,1101,001,1,1,2022_Jan_31_0946,task_complete_blocked_LC_updated,2021.2.3,244.69381476574637,
,,,X,1,,,,,,,,,,,21,1,43,0,,,,,,,,,,,,,,,,,,,,,,,,,,,,,,,,,,,,,,,,,,,,,,,,,,,,,,,,,,,,,,,,,,,,,,,,,,,,,,,,,,,,,,,,,,,,,,,,,,,,,,,,,,,387.39774499999476,388.34672259999206,1,1,387.39774499999476,388.34672259999206,388.34420629998203,None,0.36559160001343116,,,,,,,,,,,,,,,,,,,,,,,,,,,,,,,1101,001,1,1,2022_Jan_31_0946,task_complete_blocked_LC_updated,2021.2.3,244.69381476574637,
,,,X,1,,,,,,,,,,,22,0,44,0,,,,,,,,,,,,,,,,,,,,,,,,,,,,,,,,,,,,,,,,,,,,,,,,,,,,,,,,,,,,,,,,,,,,,,,,,,,,,,,,,,,,,,,,,,,,,,,,,,,,,,,,,,,388.39729480000096,389.34747290000087,1,1,388.39729480000096,389.34747290000087,389.34420500000124,None,0.31029550000675954,,,,,,,,,,,,,,,,,,,,,,,,,,,,,,,1101,001,1,1,2022_Jan_31_0946,task_complete_blocked_LC_updated,2021.2.3,244.69381476574637,
,,,O,2,,,,,,,,,,,22,1,45,1,,,,,,,,,,,,,,,,,,,,,,,,,,,,,,,,,,,,,,,,,,,,,,,,,,,,,,,,,,,,,,,,,,,,,,,,,,,,,,,,,,,,,,,,,,,,,,,,,,,,,,,,,,,389.39747409999836,390.35112899998785,2,1,389.39747409999836,390.35112899998785,390.3422215000028,None,0.43211570000858046,,,,,,,,,,,,,,,,,,,,,,,,,,,,,,,1101,001,1,1,2022_Jan_31_0946,task_complete_blocked_LC_updated,2021.2.3,244.69381476574637,
,,,O,2,,,,,,,,,,,23,0,46,1,,,,,,,,,,,,,,,,,,,,,,,,,,,,,,,,,,,,,,,,,,,,,,,,,,,,,,,,,,,,,,,,,,,,,,,,,,,,,,,,,,,,,,,,,,,,,,,,,,,,,,,,,,,390.39469019998796,391.3468750999891,2,1,390.39469019998796,391.3468750999891,391.3434992999828,390.39469019998796,0.37826709999353625,,,,,,,,,,,,,,,,,,,,,,,,,,,,,,,1101,001,1,1,2022_Jan_31_0946,task_complete_blocked_LC_updated,2021.2.3,244.69381476574637,
,,,X,1,,,,,,,,,,,23,1,47,0,,,,,,,,,,,,,,,,,,,,,,,,,,,,,,,,,,,,,,,,,,,,,,,,,,,,,,,,,,,,,,,,,,,,,,,,,,,,,,,,,,,,,,,,,,,,,,,,,,,,,,,,,,,391.39566280000145,392.3468975999858,1,1,391.39566280000145,392.3468975999858,392.3437403999851,391.39566280000145,0.36722590000135824,,,,,,,,,,,,,,,,,,,,,,,,,,,,,,,1101,001,1,1,2022_Jan_31_0946,task_complete_blocked_LC_updated,2021.2.3,244.69381476574637,
,,,X,1,,,,,,,,,,,24,0,48,0,,,,,,,,,,,,,,,,,,,,,,,,,,,,,,,,,,,,,,,,,,,,,,,,,,,,,,,,,,,,,,,,,,,,,,,,,,,,,,,,,,,,,,,,,,,,,,,,,,,,,,,,,,,392.3992014999967,393.35988579998957,1,1,392.3992014999967,393.35988579998957,393.3524077000038,None,0.4413924000109546,,,,,,,,,,,,,,,,,,,,,,,,,,,,,,,1101,001,1,1,2022_Jan_31_0946,task_complete_blocked_LC_updated,2021.2.3,244.69381476574637,
,,,O,2,,,,,,,,,,,24,1,49,1,,,,,,,,,,,,,,,,,,,,,,,,,,,,,,,,,,,,,,,,,,,,,,,,,,,,,,,,,,,,,,,,,,,,,,,,,,,,,,,,,,,,,,,,,,,,,,,,,,,,,,,,,,,393.39867019999656,394.3482254999981,2,1,393.39867019999656,394.3482254999981,394.3451105999993,None,0.31809710001107305,,,,,,,,,,,,,,,,,,,,,,,,,,,,,,,1101,001,1,1,2022_Jan_31_0946,task_complete_blocked_LC_updated,2021.2.3,244.69381476574637,
,,,X,1,,,,,,,,,,,25,0,50,0,,,,,,,,,,,,,,,,,,,,,,,,,,,,,,,,,,,,,,,,,,,,,,,,,,,,,,,,,,,,,,,,,,,,,,,,,,,,,,,,,,,,,,,,,,,,,,,,,,,,,,,,,,,394.3984019999916,395.34928759999457,1,1,394.3984019999916,395.34928759999457,395.34604889998445,None,0.490592199988896,,,,,,,,,,,,,,,,,,,,,,,,,,,,,,,1101,001,1,1,2022_Jan_31_0946,task_complete_blocked_LC_updated,2021.2.3,244.69381476574637,
,,,O,2,,,,,,,,,,,25,1,51,1,,,,,,,,,,,,,,,,,,,,,,,,,,,,,,,,,,,,,,,,,,,,,,,,,,,,,,,,,,,,,,,,,,,,,,,,,,,,,,,,,,,,,,,,,,,,,,,,,,,,,,,,,,,395.3984508999856,396.3482328999962,2,1,395.3984508999856,396.3482328999962,396.3436997999961,None,0.33321549999527633,,,,,,,,,,,,,,,,,,,,,,,,,,,,,,,1101,001,1,1,2022_Jan_31_0946,task_complete_blocked_LC_updated,2021.2.3,244.69381476574637,
,,,X,1,,,,,,,,,,,26,0,52,0,,,,,,,,,,,,,,,,,,,,,,,,,,,,,,,,,,,,,,,,,,,,,,,,,,,,,,,,,,,,,,,,,,,,,,,,,,,,,,,,,,,,,,,,,,,,,,,,,,,,,,,,,,,396.3945934000076,397.34754980000434,1,1,396.3945934000076,397.34754980000434,397.3427192999807,396.3945934000076,0.4312027000123635,,,,,,,,,,,,,,,,,,,,,,,,,,,,,,,1101,001,1,1,2022_Jan_31_0946,task_complete_blocked_LC_updated,2021.2.3,244.69381476574637,
,,,O,2,,,,,,,,,,,26,1,53,1,,,,,,,,,,,,,,,,,,,,,,,,,,,,,,,,,,,,,,,,,,,,,,,,,,,,,,,,,,,,,,,,,,,,,,,,,,,,,,,,,,,,,,,,,,,,,,,,,,,,,,,,,,,397.3964164000063,398.3460997999937,2,1,397.3964164000063,398.3460997999937,398.34225359998527,397.3964164000063,0.45124829999986105,,,,,,,,,,,,,,,,,,,,,,,,,,,,,,,1101,001,1,1,2022_Jan_31_0946,task_complete_blocked_LC_updated,2021.2.3,244.69381476574637,
,,,O,2,,,,,,,,,,,27,0,54,1,,,,,,,,,,,,,,,,,,,,,,,,,,,,,,,,,,,,,,,,,,,,,,,,,,,,,,,,,,,,,,,,,,,,,,,,,,,,,,,,,,,,,,,,,,,,,,,,,,,,,,,,,,,398.3944409999822,399.3436682999891,2,1,398.3944409999822,399.3436682999891,399.3410023000033,398.3944409999822,0.7321893999760505,,,,,,,,,,,,,,,,,,,,,,,,,,,,,,,1101,001,1,1,2022_Jan_31_0946,task_complete_blocked_LC_updated,2021.2.3,244.69381476574637,
,,,X,1,,,,,,,,,,,27,1,55,0,,,,,,,,,,,,,,,,,,,,,,,,,,,,,,,,,,,,,,,,,,,,,,,,,,,,,,,,,,,,,,,,,,,,,,,,,,,,,,,,,,,,,,,,,,,,,,,,,,,,,,,,,,,399.39359369999147,400.3442115999933,1,1,399.39359369999147,400.3442115999933,400.3415083999862,399.39359369999147,0.4952789000235498,,,,,,,,,,,,,,,,,,,,,,,,,,,,,,,1101,001,1,1,2022_Jan_31_0946,task_complete_blocked_LC_updated,2021.2.3,244.69381476574637,
,,,X,1,,,,,,,,,,,28,0,56,0,,,,,,,,,,,,,,,,,,,,,,,,,,,,,,,,,,,,,,,,,,,,,,,,,,,,,,,,,,,,,,,,,,,,,,,,,,,,,,,,,,,,,,,,,,,,,,,,,,,,,,,,,,,400.3978237999836,401.3523596999876,1,1,400.3978237999836,401.3523596999876,401.34161949998816,400.3978237999836,0.6888179999950808,,,,,,,,,,,,,,,,,,,,,,,,,,,,,,,1101,001,1,1,2022_Jan_31_0946,task_complete_blocked_LC_updated,2021.2.3,244.69381476574637,
,,,O,2,,,,,,,,,,,28,1,57,1,,,,,,,,,,,,,,,,,,,,,,,,,,,,,,,,,,,,,,,,,,,,,,,,,,,,,,,,,,,,,,,,,,,,,,,,,,,,,,,,,,,,,,,,,,,,,,,,,,,,,,,,,,,401.3956431999977,402.34686859999783,2,1,401.3956431999977,402.34686859999783,402.34318329999223,401.3956431999977,0.41902259999187663,,,,,,,,,,,,,,,,,,,,,,,,,,,,,,,1101,001,1,1,2022_Jan_31_0946,task_complete_blocked_LC_updated,2021.2.3,244.69381476574637,
,,,X,1,,,,,,,,,,,29,0,58,0,,,,,,,,,,,,,,,,,,,,,,,,,,,,,,,,,,,,,,,,,,,,,,,,,,,,,,,,,,,,,,,,,,,,,,,,,,,,,,,,,,,,,,,,,,,,,,,,,,,,,,,,,,,402.39581829999224,403.3489411000046,1,1,402.39581829999224,403.3489411000046,403.345982800005,402.39581829999224,0.4798392000084277,,,,,,,,,,,,,,,,,,,,,,,,,,,,,,,1101,001,1,1,2022_Jan_31_0946,task_complete_blocked_LC_updated,2021.2.3,244.69381476574637,
,,,O,2,,,,,,,,,,,29,1,59,1,,,,,,,,,,,,,,,,,,,,,,,,,,,,,,,,,,,,,,,,,,,,,,,,,,,,,,,,,,,,,,,,,,,,,,,,,,,,,,,,,,,,,,,,,,,,,,,,,,,,,,,,,,,403.4071572999819,404.35731900000246,2,1,403.4071572999819,404.35731900000246,404.3541611999972,None,0.36856729999999516,,,,,,,,,,,,,,,,,,,,,,,,,,,,,,,1101,001,1,1,2022_Jan_31_0946,task_complete_blocked_LC_updated,2021.2.3,244.69381476574637,
,,,,,,,,,,,,,,,,,,,,,,,,,,,,,,,,,,,,,,,,,,,,,,,,,,,,,,,,,,,,,,,,,,,,,,,,,,,,,,,,,,,,,,,,,,,,,,,,,,,,,,,,,,,,,,,,,,,,,,,,,,,,,,,,,,,,,,404.3972866999975,None,space,42.19904519998818,409.39691630000016,None,,,,,,,,,,,,,,,,,,,,,,,,,1101,001,1,1,2022_Jan_31_0946,task_complete_blocked_LC_updated,2021.2.3,244.69381476574637,
,,,,,,,,,,,,,,,,,,,,,,,,,,,,,,,,,,,,,,,,,,,,,,,,,,,,,,,,,,,,,,,,,,,,,,,,,,,,,,,,,,,,,,,,,,,,,,,451.6061555999913,None,5,12.278693499974906,451.6061555999913,None,,,,,,,,,,,,,,,,,,,,,,,,,,,,,,,,,,,,,,,,409.39691630000016,None,,,,,,,,,,,,,,,,,,,,,,,1101,001,1,1,2022_Jan_31_0946,task_complete_blocked_LC_updated,2021.2.3,244.69381476574637,
stimulus_images/Acomputerdriv.jpg,TIME,0,,,,,,,,,,,,,,,,,0,0,0,5,,,,,,,,,,,,,,,,,,,,,,,,,,,,,,,,,,,,,,,,,,,,,,,,,,,,,,,,,,,,,,,,,,,,,,,,,,,,,,,2.7999922167509794e-06,463.9162357999885,465.91452960000606,463.9162357999885,465.91452960000606,464.91016309999395,465.91126809999696,464.91016309999395,465.91126809999696,465.91126809999696,None,5.986437699990347,469.90154489999986,None,469.90154489999986,None,2,2.6841180000046734,469.90154489999986,None,475.8992392999935,None,,,,,,,,,,,,,,,,,,,,,,,,,,,,,,,,,,,,,,,,,,1101,001,1,1,2022_Jan_31_0946,task_complete_blocked_LC_updated,2021.2.3,244.69381476574637,
stimulus_images/AOTOSCOP5.jpg,TIME,0,,,,,,,,,,,,,,,,,0,1,1,9,,,,,,,,,,,,,,,,,,,,,,,,,,,,,,,,,,,,,,,,,,,,,,,,,,,,,,,,,,,,,,,,,,,,,,,,,,,,,,,13.990357199974824,477.90497770000366,479.90603199999896,477.90497770000366,479.90603199999896,478.90227069999673,479.90295990000595,478.90227069999673,479.90295990000595,479.8988743000082,None,19.992180499975802,483.9036688999913,None,483.9036688999913,None,4,0.6230397000035737,483.9036688999913,None,489.90480230000685,None,,,,,,,,,,,,,,,,,,,,,,,,,,,,,,,,,,,,,,,,,,1101,001,1,1,2022_Jan_31_0946,task_complete_blocked_LC_updated,2021.2.3,244.69381476574637,
stimulus_images/Aeasteregg14.jpg,TIME,0,,,,,,,,,,,,,,,,,0,2,2,6,,,,,,,,,,,,,,,,,,,,,,,,,,,,,,,,,,,,,,,,,,,,,,,,,,,,,,,,,,,,,,,,,,,,,,,,,,,,,,,26.996548299997812,490.910364499985,492.9141822999809,490.910364499985,492.9141822999809,491.9059908000054,492.9141822999809,491.9059908000054,492.9141822999809,492.90998659998877,None,32.99887179999496,496.9098920999968,None,496.9098920999968,None,1,0.9905412000080105,496.9098920999968,None,502.9126764999819,None,,,,,,,,,,,,,,,,,,,,,,,,,,,,,,,,,,,,,,,,,,1101,001,1,1,2022_Jan_31_0946,task_complete_blocked_LC_updated,2021.2.3,244.69381476574637,
stimulus_images/AARMCHA25.jpg,TIME,0,,,,,,,,,,,,,,,,,0,3,3,0,,,,,,,,,,,,,,,,,,,,,,,,,,,,,,,,,,,,,,,,,,,,,,,,,,,,,,,,,,,,,,,,,,,,,,,,,,,,,,,41.00494789998629,504.91895900000236,506.92166560000624,504.91895900000236,506.92166560000624,505.9183023000078,506.92166560000624,505.9183023000078,506.92166560000624,506.92166560000624,None,47.007616599992616,510.9189705000026,None,510.9189705000026,None,3,0.7580948999966495,510.9189705000026,None,516.9213873999834,None,,,,,,,,,,,,,,,,,,,,,,,,,,,,,,,,,,,,,,,,,,1101,001,1,1,2022_Jan_31_0946,task_complete_blocked_LC_updated,2021.2.3,244.69381476574637,
stimulus_images/ABALLYAR4.jpg,TIME,0,,,,,,,,,,,,,,,,,0,4,4,1,,,,,,,,,,,,,,,,,,,,,,,,,,,,,,,,,,,,,,,,,,,,,,,,,,,,,,,,,,,,,,,,,,,,,,,,,,,,,,,56.01338150000083,519.9345560999936,521.9331004999985,519.9345560999936,521.9331004999985,520.9309262000024,521.9331004999985,520.9309262000024,521.9331004999985,521.9298993999837,None,62.0156619999907,525.9267811999889,None,525.9267811999889,None,4,0.5559166000166442,525.9267811999889,None,531.9283027999918,None,,,,,,,,,,,,,,,,,,,,,,,,,,,,,,,,,,,,,,,,,,1101,001,1,1,2022_Jan_31_0946,task_complete_blocked_LC_updated,2021.2.3,244.69381476574637,
stimulus_images/Aboxofchocola.jpg,TIME,0,,,,,,,,,,,,,,,,,0,5,5,3,,,,,,,,,,,,,,,,,,,,,,,,,,,,,,,,,,,,,,,,,,,,,,,,,,,,,,,,,,,,,,,,,,,,,,,,,,,,,,,71.02090579998912,534.9347053999954,536.9343510000035,534.9347053999954,536.9343510000035,535.9355639999849,536.9372867000056,535.9355639999849,536.9372867000056,536.9302988999989,None,77.02166129997931,540.9323236999917,None,540.9323236999917,None,3,1.403466700023273,540.9323236999917,None,546.9331341999932,None,,,,,,,,,,,,,,,,,,,,,,,,,,,,,,,,,,,,,,,,,,1101,001,1,1,2022_Jan_31_0946,task_complete_blocked_LC_updated,2021.2.3,244.69381476574637,
stimulus_images/ACAROSLI2.jpg,TIME,0,,,,,,,,,,,,,,,,,0,6,6,4,,,,,,,,,,,,,,,,,,,,,,,,,,,,,,,,,,,,,,,,,,,,,,,,,,,,,,,,,,,,,,,,,,,,,,,,,,,,,,,84.0258619999804,547.9405532999954,549.9427381999849,547.9405532999954,549.9427381999849,548.9361684999894,549.9392480999813,548.9361684999894,549.9392480999813,549.9351029999962,None,90.02626729998155,553.937119499984,None,553.937119499984,None,2,1.298776599986013,553.937119499984,None,559.9413953000039,None,,,,,,,,,,,,,,,,,,,,,,,,,,,,,,,,,,,,,,,,,,1101,001,1,1,2022_Jan_31_0946,task_complete_blocked_LC_updated,2021.2.3,244.69381476574637,
stimulus_images/Agiftbag20.jpg,TIME,1,,,,,,,,,,,,,,,,,0,7,7,7,,,,,,,,,,,,,,,,,,,,,,,,,,,,,,,,,,,,,,,,,,,,,,,,,,,,,,,,,,,,,,,,,,,,,,,,,,,,,,,98.0347784999758,561.9561186000064,563.9606670000067,561.9561186000064,563.9606670000067,562.9534013000084,563.9538497999893,562.9534013000084,563.9538497999893,563.9538497999893,None,104.03709129997878,567.9479601999919,None,567.9479601999919,None,3,1.218896100006532,567.9479601999919,None,573.9470173000009,None,,,,,,,,,,,,,,,,,,,,,,,,,,,,,,,,,,,,,,,,,,1101,001,1,1,2022_Jan_31_0946,task_complete_blocked_LC_updated,2021.2.3,244.69381476574637,
stimulus_images/AICESKAT8.jpg,TIME,0,,,,,,,,,,,,,,,,,0,8,8,8,,,,,,,,,,,,,,,,,,,,,,,,,,,,,,,,,,,,,,,,,,,,,,,,,,,,,,,,,,,,,,,,,,,,,,,,,,,,,,,113.0385672999837,576.9526500999928,578.9535913,576.9526500999928,578.9535913,577.949312599987,578.9506172999972,577.949312599987,578.9506172999972,578.9469835000054,None,119.03890819998924,582.9500680000056,None,582.9500680000056,None,4,4.480845699989004,582.9500680000056,None,588.9523614000063,None,,,,,,,,,,,,,,,,,,,,,,,,,,,,,,,,,,,,,,,,,,1101,001,1,1,2022_Jan_31_0946,task_complete_blocked_LC_updated,2021.2.3,244.69381476574637,
stimulus_images/ABILLTABL.jpg,TIME,1,,,,,,,,,,,,,,,,,0,9,9,2,,,,,,,,,,,,,,,,,,,,,,,,,,,,,,,,,,,,,,,,,,,,,,,,,,,,,,,,,,,,,,,,,,,,,,,,,,,,,,,127.0428662999766,590.958029100002,592.9577792999917,590.958029100002,592.9577792999917,591.9531279999937,592.9577792999917,591.9531279999937,592.9577792999917,592.9548214999959,None,133.0454889999819,596.956439600006,None,596.956439600006,None,4,1.0771144999889657,596.956439600006,None,602.9571859999851,None,,,,,,,,,,,,,,,,,,,,,,,,,,,,,,,,,,,,,,,,,,1101,001,1,1,2022_Jan_31_0946,task_complete_blocked_LC_updated,2021.2.3,244.69381476574637,
stimulus_images/Atelescope2.jpg,TIME,1,,,,,,,,,,,,,,,,,,,,,0,0,0,1,,,,,,,,,,,,,,,,,,,,,,,,,,,,,,,,,,,,,,,,,,,,,,,,,,,,,,,,,,,,,,,,,,,,,,,,,,,141.05340209999122,604.9749358999834,606.9734278999968,604.9749358999834,606.9734278999968,605.9746424999903,606.9734278999968,605.9746424999903,606.9734278999968,606.9701445999963,None,147.05002999998396,610.9622913000057,None,610.9622913000057,None,4,1.3103311999875586,610.9622913000057,None,616.9585034000047,None,,,,,,,,,,,,,,,,,,,,,,,,,,,,,,,,,,,,,,,,,,1101,001,1,1,2022_Jan_31_0946,task_complete_blocked_LC_updated,2021.2.3,244.69381476574637,
stimulus_images/wetsuit1.jpg,TIME,0,,,,,,,,,,,,,,,,,,,,,0,1,1,3,,,,,,,,,,,,,,,,,,,,,,,,,,,,,,,,,,,,,,,,,,,,,,,,,,,,,,,,,,,,,,,,,,,,,,,,,,,154.05127689999063,617.965950999991,619.968076899997,617.965950999991,619.968076899997,618.9650415999931,619.9647962999879,618.9650415999931,619.9647962999879,619.9607397000073,None,160.05126419998123,623.962177599984,None,623.962177599984,None,3,1.5814697000023443,623.962177599984,None,629.9631175999821,None,,,,,,,,,,,,,,,,,,,,,,,,,,,,,,,,,,,,,,,,,,1101,001,1,1,2022_Jan_31_0946,task_complete_blocked_LC_updated,2021.2.3,244.69381476574637,
stimulus_images/Aboots56.jpg,TIME,0,,,,,,,,,,,,,,,,,,,,,0,2,2,9,,,,,,,,,,,,,,,,,,,,,,,,,,,,,,,,,,,,,,,,,,,,,,,,,,,,,,,,,,,,,,,,,,,,,,,,,,,169.0559821999923,632.9769314999867,634.9782444000011,632.9769314999867,634.9782444000011,633.9736497999984,634.9782444000011,633.9736497999984,634.9782444000011,634.9747725999914,None,175.0582392999786,638.9692400000058,None,638.9692400000058,None,4,0.9037175999837928,638.9692400000058,None,644.9669256999914,None,,,,,,,,,,,,,,,,,,,,,,,,,,,,,,,,,,,,,,,,,,1101,001,1,1,2022_Jan_31_0946,task_complete_blocked_LC_updated,2021.2.3,244.69381476574637,
stimulus_images/corkscrew02.jpg,TIME,0,,,,,,,,,,,,,,,,,,,,,0,3,3,2,,,,,,,,,,,,,,,,,,,,,,,,,,,,,,,,,,,,,,,,,,,,,,,,,,,,,,,,,,,,,,,,,,,,,,,,,,,183.06026399999973,646.9777233999921,648.9777754999814,646.9777233999921,648.9777754999814,647.968655100005,648.9692786000087,647.968655100005,648.9692786000087,648.9692786000087,None,189.0604236999934,652.9711650999961,None,652.9711650999961,None,4,1.1618898000160698,652.9711650999961,None,658.9720156999829,None,,,,,,,,,,,,,,,,,,,,,,,,,,,,,,,,,,,,,,,,,,1101,001,1,1,2022_Jan_31_0946,task_complete_blocked_LC_updated,2021.2.3,244.69381476574637,
stimulus_images/Abasketofbrea.jpg,TIME,0,,,,,,,,,,,,,,,,,,,,,0,4,4,8,,,,,,,,,,,,,,,,,,,,,,,,,,,,,,,,,,,,,,,,,,,,,,,,,,,,,,,,,,,,,,,,,,,,,,,,,,,196.06432179998956,659.9852271999989,661.9863777999999,659.9852271999989,661.9863777999999,660.9822621000058,661.9827523999847,660.9822621000058,661.9827523999847,661.9827523999847,None,202.0669774999842,665.9824573000078,None,665.9824573000078,None,2,1.2824091000074986,665.9824573000078,None,671.9788667999965,None,,,,,,,,,,,,,,,,,,,,,,,,,,,,,,,,,,,,,,,,,,1101,001,1,1,2022_Jan_31_0946,task_complete_blocked_LC_updated,2021.2.3,244.69381476574637,
stimulus_images/AALTIRE2.jpg,TIME,0,,,,,,,,,,,,,,,,,,,,,0,5,5,5,,,,,,,,,,,,,,,,,,,,,,,,,,,,,,,,,,,,,,,,,,,,,,,,,,,,,,,,,,,,,,,,,,,,,,,,,,,209.06849369997508,672.9891171999916,674.9904958999832,672.9891171999916,674.9904958999832,673.9864030999888,674.9873244999908,673.9864030999888,674.9873244999908,674.9873244999908,None,215.07115149998572,678.9823271000059,None,678.9823271000059,None,None,,678.9823271000059,None,684.9822025999893,None,,,,,,,,,,,,,,,,,,,,,,,,,,,,,,,,,,,,,,,,,,1101,001,1,1,2022_Jan_31_0946,task_complete_blocked_LC_updated,2021.2.3,244.69381476574637,
stimulus_images/Abackpack11.jpg,TIME,1,,,,,,,,,,,,,,,,,,,,,0,6,6,7,,,,,,,,,,,,,,,,,,,,,,,,,,,,,,,,,,,,,,,,,,,,,,,,,,,,,,,,,,,,,,,,,,,,,,,,,,,224.07218329998432,687.9864682999905,689.9847129999835,687.9864682999905,689.9847129999835,688.9824174999958,689.9817450999981,688.9824174999958,689.9817450999981,689.9817450999981,None,230.07300720000057,693.9875134000031,None,693.9875134000031,None,3,4.660392999998294,693.9875134000031,None,699.9851350999961,None,,,,,,,,,,,,,,,,,,,,,,,,,,,,,,,,,,,,,,,,,,1101,001,1,1,2022_Jan_31_0946,task_complete_blocked_LC_updated,2021.2.3,244.69381476574637,
stimulus_images/Aroadsignin15.jpg,TIME,1,,,,,,,,,,,,,,,,,,,,,0,7,7,0,,,,,,,,,,,,,,,,,,,,,,,,,,,,,,,,,,,,,,,,,,,,,,,,,,,,,,,,,,,,,,,,,,,,,,,,,,,238.076949099981,701.9978775999916,703.9978240999917,701.9978775999916,703.9978240999917,702.9949216000095,703.9978240999917,702.9949216000095,703.9978240999917,703.9947138999996,None,244.07959449998452,707.9912624999997,None,707.9912624999997,None,4,0.8664209999842569,707.9912624999997,None,713.9910299000039,None,,,,,,,,,,,,,,,,,,,,,,,,,,,,,,,,,,,,,,,,,,1101,001,1,1,2022_Jan_31_0946,task_complete_blocked_LC_updated,2021.2.3,244.69381476574637,
stimulus_images/Aantiquerota7.jpg,TIME,0,,,,,,,,,,,,,,,,,,,,,0,8,8,6,,,,,,,,,,,,,,,,,,,,,,,,,,,,,,,,,,,,,,,,,,,,,,,,,,,,,,,,,,,,,,,,,,,,,,,,,,,252.08118099998683,715.9951773000066,717.9966939000005,715.9951773000066,717.9966939000005,716.9948524000065,717.9966939000005,716.9948524000065,717.9966939000005,717.9887710000039,None,258.0794894999999,721.9905476999993,None,721.9905476999993,None,1,1.970585300005041,721.9905476999993,None,727.9929194999859,None,,,,,,,,,,,,,,,,,,,,,,,,,,,,,,,,,,,,,,,,,,1101,001,1,1,2022_Jan_31_0946,task_complete_blocked_LC_updated,2021.2.3,244.69381476574637,
stimulus_images/A25thdec3.jpg,TIME,0,,,,,,,,,,,,,,,,,,,,,0,9,9,4,,,,,,,,,,,,,,,,,,,,,,,,,,,,,,,,,,,,,,,,,,,,,,,,,,,,,,,,,,,,,,,,,,,,,,,,,,,267.08560279998346,731.0102008999966,733.0124018999923,731.0102008999966,733.0124018999923,732.0032703999896,733.0049853999808,732.0032703999896,733.0049853999808,733.0013250999909,None,273.088056699984,737.0035047999991,None,737.0035047999991,None,1,1.1702774000004865,737.0035047999991,None,743.004383499996,None,,,,,,,,,,,,,,,,,,,,,,,,,,,,,,,,,,,,,,,,,,1101,001,1,1,2022_Jan_31_0946,task_complete_blocked_LC_updated,2021.2.3,244.69381476574637,
,,,O,2,,,,,,,,,,,,,,,,,,,,,,,0,0,0,1,,,,,,,,,,,,,,,,,,,,,,,,,,,,,,,,,,,,,,,,,,,,,,,,,,,,,,,,,,,,,,,,,,,,,,,,,,,,,,,,,,,,,,,,,,,,,744.004677799996,None,747.0115761999914,747.9618576999928,2,1,747.0115761999914,747.9618576999928,747.958324999985,None,0.579567600012524,,,,,,,,,,,,,,,,,,,,,,,,,,,,,,,1101,001,1,1,2022_Jan_31_0946,task_complete_blocked_LC_updated,2021.2.3,244.69381476574637,
,,,X,1,,,,,,,,,,,,,,,,,,,,,,,0,1,1,0,,,,,,,,,,,,,,,,,,,,,,,,,,,,,,,,,,,,,,,,,,,,,,,,,,,,,,,,,,,,,,,,,,,,,,,,,,,,,,,,,,,,,,,,,,,,,,,748.0113184000074,748.9616803999816,1,1,748.0113184000074,748.9616803999816,748.959017199988,None,0.43153220001840964,,,,,,,,,,,,,,,,,,,,,,,,,,,,,,,1101,001,1,1,2022_Jan_31_0946,task_complete_blocked_LC_updated,2021.2.3,244.69381476574637,
,,,X,1,,,,,,,,,,,,,,,,,,,,,,,1,0,2,0,,,,,,,,,,,,,,,,,,,,,,,,,,,,,,,,,,,,,,,,,,,,,,,,,,,,,,,,,,,,,,,,,,,,,,,,,,,,,,,,,,,,,,,,,,,,,,,749.0075252999959,749.9559202000091,1,1,749.0075252999959,749.9559202000091,749.9533089000033,None,0.35908130000461824,,,,,,,,,,,,,,,,,,,,,,,,,,,,,,,1101,001,1,1,2022_Jan_31_0946,task_complete_blocked_LC_updated,2021.2.3,244.69381476574637,
,,,O,2,,,,,,,,,,,,,,,,,,,,,,,1,1,3,1,,,,,,,,,,,,,,,,,,,,,,,,,,,,,,,,,,,,,,,,,,,,,,,,,,,,,,,,,,,,,,,,,,,,,,,,,,,,,,,,,,,,,,,,,,,,,,,750.0105475999881,750.9723969000042,2,1,750.0105475999881,750.9723969000042,750.9660187999834,750.0105475999881,0.3037200000253506,,,,,,,,,,,,,,,,,,,,,,,,,,,,,,,1101,001,1,1,2022_Jan_31_0946,task_complete_blocked_LC_updated,2021.2.3,244.69381476574637,
,,,O,2,,,,,,,,,,,,,,,,,,,,,,,2,0,4,1,,,,,,,,,,,,,,,,,,,,,,,,,,,,,,,,,,,,,,,,,,,,,,,,,,,,,,,,,,,,,,,,,,,,,,,,,,,,,,,,,,,,,,,,,,,,,,,751.0129234000051,751.9667589000019,2,1,751.0129234000051,751.9667589000019,751.9667589000019,None,0.305037700018147,,,,,,,,,,,,,,,,,,,,,,,,,,,,,,,1101,001,1,1,2022_Jan_31_0946,task_complete_blocked_LC_updated,2021.2.3,244.69381476574637,
,,,X,1,,,,,,,,,,,,,,,,,,,,,,,2,1,5,0,,,,,,,,,,,,,,,,,,,,,,,,,,,,,,,,,,,,,,,,,,,,,,,,,,,,,,,,,,,,,,,,,,,,,,,,,,,,,,,,,,,,,,,,,,,,,,,752.0115031999885,752.9630251000053,1,1,752.0115031999885,752.9630251000053,752.958702999982,None,0.3274941999989096,,,,,,,,,,,,,,,,,,,,,,,,,,,,,,,1101,001,1,1,2022_Jan_31_0946,task_complete_blocked_LC_updated,2021.2.3,244.69381476574637,
,,,O,2,,,,,,,,,,,,,,,,,,,,,,,3,0,6,1,,,,,,,,,,,,,,,,,,,,,,,,,,,,,,,,,,,,,,,,,,,,,,,,,,,,,,,,,,,,,,,,,,,,,,,,,,,,,,,,,,,,,,,,,,,,,,,753.0105949999997,753.9683270000096,2,1,753.0105949999997,753.9683270000096,753.9629167999956,None,0.36539320001611486,,,,,,,,,,,,,,,,,,,,,,,,,,,,,,,1101,001,1,1,2022_Jan_31_0946,task_complete_blocked_LC_updated,2021.2.3,244.69381476574637,
,,,X,1,,,,,,,,,,,,,,,,,,,,,,,3,1,7,0,,,,,,,,,,,,,,,,,,,,,,,,,,,,,,,,,,,,,,,,,,,,,,,,,,,,,,,,,,,,,,,,,,,,,,,,,,,,,,,,,,,,,,,,,,,,,,,754.013839399995,754.9733056999976,1,1,754.013839399995,754.9733056999976,754.9683095999935,None,0.46780199999921024,,,,,,,,,,,,,,,,,,,,,,,,,,,,,,,1101,001,1,1,2022_Jan_31_0946,task_complete_blocked_LC_updated,2021.2.3,244.69381476574637,
,,,O,2,,,,,,,,,,,,,,,,,,,,,,,4,0,8,1,,,,,,,,,,,,,,,,,,,,,,,,,,,,,,,,,,,,,,,,,,,,,,,,,,,,,,,,,,,,,,,,,,,,,,,,,,,,,,,,,,,,,,,,,,,,,,,755.0082937999978,755.9576032999903,2,1,755.0082937999978,755.9576032999903,755.953794800007,None,0.46144790001562797,,,,,,,,,,,,,,,,,,,,,,,,,,,,,,,1101,001,1,1,2022_Jan_31_0946,task_complete_blocked_LC_updated,2021.2.3,244.69381476574637,
,,,X,1,,,,,,,,,,,,,,,,,,,,,,,4,1,9,0,,,,,,,,,,,,,,,,,,,,,,,,,,,,,,,,,,,,,,,,,,,,,,,,,,,,,,,,,,,,,,,,,,,,,,,,,,,,,,,,,,,,,,,,,,,,,,,756.0066174999811,756.9583337999939,1,1,756.0066174999811,756.9583337999939,756.9558028999891,756.0066174999811,0.5444192999857478,,,,,,,,,,,,,,,,,,,,,,,,,,,,,,,1101,001,1,1,2022_Jan_31_0946,task_complete_blocked_LC_updated,2021.2.3,244.69381476574637,
,,,O,2,,,,,,,,,,,,,,,,,,,,,,,5,0,10,1,,,,,,,,,,,,,,,,,,,,,,,,,,,,,,,,,,,,,,,,,,,,,,,,,,,,,,,,,,,,,,,,,,,,,,,,,,,,,,,,,,,,,,,,,,,,,,,757.0085277000035,757.9581940000062,2,1,757.0085277000035,757.9581940000062,757.9550357999979,None,0.45658510000794195,,,,,,,,,,,,,,,,,,,,,,,,,,,,,,,1101,001,1,1,2022_Jan_31_0946,task_complete_blocked_LC_updated,2021.2.3,244.69381476574637,
,,,X,1,,,,,,,,,,,,,,,,,,,,,,,5,1,11,0,,,,,,,,,,,,,,,,,,,,,,,,,,,,,,,,,,,,,,,,,,,,,,,,,,,,,,,,,,,,,,,,,,,,,,,,,,,,,,,,,,,,,,,,,,,,,,,758.0087719000003,758.9577244999819,1,1,758.0087719000003,758.9577244999819,758.9545296999859,None,0.483878500002902,,,,,,,,,,,,,,,,,,,,,,,,,,,,,,,1101,001,1,1,2022_Jan_31_0946,task_complete_blocked_LC_updated,2021.2.3,244.69381476574637,
,,,X,1,,,,,,,,,,,,,,,,,,,,,,,6,0,12,0,,,,,,,,,,,,,,,,,,,,,,,,,,,,,,,,,,,,,,,,,,,,,,,,,,,,,,,,,,,,,,,,,,,,,,,,,,,,,,,,,,,,,,,,,,,,,,,759.0069228000066,759.957992599986,1,1,759.0069228000066,759.957992599986,759.9549012999923,759.0069228000066,0.4499266000057105,,,,,,,,,,,,,,,,,,,,,,,,,,,,,,,1101,001,1,1,2022_Jan_31_0946,task_complete_blocked_LC_updated,2021.2.3,244.69381476574637,
,,,O,2,,,,,,,,,,,,,,,,,,,,,,,6,1,13,1,,,,,,,,,,,,,,,,,,,,,,,,,,,,,,,,,,,,,,,,,,,,,,,,,,,,,,,,,,,,,,,,,,,,,,,,,,,,,,,,,,,,,,,,,,,,,,,760.0091085000022,760.9581621999969,2,1,760.0091085000022,760.9581621999969,760.9557010999997,None,0.420380199997453,,,,,,,,,,,,,,,,,,,,,,,,,,,,,,,1101,001,1,1,2022_Jan_31_0946,task_complete_blocked_LC_updated,2021.2.3,244.69381476574637,
,,,O,2,,,,,,,,,,,,,,,,,,,,,,,7,0,14,1,,,,,,,,,,,,,,,,,,,,,,,,,,,,,,,,,,,,,,,,,,,,,,,,,,,,,,,,,,,,,,,,,,,,,,,,,,,,,,,,,,,,,,,,,,,,,,,761.0118765000079,761.9630497999897,2,1,761.0118765000079,761.9630497999897,761.9551558000094,None,0.3207571000093594,,,,,,,,,,,,,,,,,,,,,,,,,,,,,,,1101,001,1,1,2022_Jan_31_0946,task_complete_blocked_LC_updated,2021.2.3,244.69381476574637,
,,,X,1,,,,,,,,,,,,,,,,,,,,,,,7,1,15,0,,,,,,,,,,,,,,,,,,,,,,,,,,,,,,,,,,,,,,,,,,,,,,,,,,,,,,,,,,,,,,,,,,,,,,,,,,,,,,,,,,,,,,,,,,,,,,,762.0088886999874,762.9628847999847,1,1,762.0088886999874,762.9628847999847,762.9594406999822,None,0.42976629998884164,,,,,,,,,,,,,,,,,,,,,,,,,,,,,,,1101,001,1,1,2022_Jan_31_0946,task_complete_blocked_LC_updated,2021.2.3,244.69381476574637,
,,,X,1,,,,,,,,,,,,,,,,,,,,,,,8,0,16,0,,,,,,,,,,,,,,,,,,,,,,,,,,,,,,,,,,,,,,,,,,,,,,,,,,,,,,,,,,,,,,,,,,,,,,,,,,,,,,,,,,,,,,,,,,,,,,,763.007581599988,763.9594018000062,1,1,763.007581599988,763.9594018000062,763.9552242000063,None,0.40260159998433664,,,,,,,,,,,,,,,,,,,,,,,,,,,,,,,1101,001,1,1,2022_Jan_31_0946,task_complete_blocked_LC_updated,2021.2.3,244.69381476574637,
,,,O,2,,,,,,,,,,,,,,,,,,,,,,,8,1,17,1,,,,,,,,,,,,,,,,,,,,,,,,,,,,,,,,,,,,,,,,,,,,,,,,,,,,,,,,,,,,,,,,,,,,,,,,,,,,,,,,,,,,,,,,,,,,,,,764.0087157000089,764.9592166999937,2,1,764.0087157000089,764.9592166999937,764.955759000004,None,0.38719700000365265,,,,,,,,,,,,,,,,,,,,,,,,,,,,,,,1101,001,1,1,2022_Jan_31_0946,task_complete_blocked_LC_updated,2021.2.3,244.69381476574637,
,,,X,1,,,,,,,,,,,,,,,,,,,,,,,9,0,18,0,,,,,,,,,,,,,,,,,,,,,,,,,,,,,,,,,,,,,,,,,,,,,,,,,,,,,,,,,,,,,,,,,,,,,,,,,,,,,,,,,,,,,,,,,,,,,,,765.0125779999944,765.9630348999926,1,1,765.0125779999944,765.9630348999926,765.9596557999903,None,0.4558144999900833,,,,,,,,,,,,,,,,,,,,,,,,,,,,,,,1101,001,1,1,2022_Jan_31_0946,task_complete_blocked_LC_updated,2021.2.3,244.69381476574637,
,,,O,2,,,,,,,,,,,,,,,,,,,,,,,9,1,19,1,,,,,,,,,,,,,,,,,,,,,,,,,,,,,,,,,,,,,,,,,,,,,,,,,,,,,,,,,,,,,,,,,,,,,,,,,,,,,,,,,,,,,,,,,,,,,,,766.0086158000049,766.9576477000082,2,1,766.0086158000049,766.9576477000082,766.9543225000089,None,0.3449325999827124,,,,,,,,,,,,,,,,,,,,,,,,,,,,,,,1101,001,1,1,2022_Jan_31_0946,task_complete_blocked_LC_updated,2021.2.3,244.69381476574637,
,,,X,1,,,,,,,,,,,,,,,,,,,,,,,10,0,20,0,,,,,,,,,,,,,,,,,,,,,,,,,,,,,,,,,,,,,,,,,,,,,,,,,,,,,,,,,,,,,,,,,,,,,,,,,,,,,,,,,,,,,,,,,,,,,,,767.005814300006,767.9589655000018,1,1,767.005814300006,767.9589655000018,767.9546205000079,767.005814300006,0.36431809997884557,,,,,,,,,,,,,,,,,,,,,,,,,,,,,,,1101,001,1,1,2022_Jan_31_0946,task_complete_blocked_LC_updated,2021.2.3,244.69381476574637,
,,,O,2,,,,,,,,,,,,,,,,,,,,,,,10,1,21,1,,,,,,,,,,,,,,,,,,,,,,,,,,,,,,,,,,,,,,,,,,,,,,,,,,,,,,,,,,,,,,,,,,,,,,,,,,,,,,,,,,,,,,,,,,,,,,,768.0080904999922,768.9587021000043,2,1,768.0080904999922,768.9587021000043,768.9543594999996,None,0.3279581000097096,,,,,,,,,,,,,,,,,,,,,,,,,,,,,,,1101,001,1,1,2022_Jan_31_0946,task_complete_blocked_LC_updated,2021.2.3,244.69381476574637,
,,,O,2,,,,,,,,,,,,,,,,,,,,,,,11,0,22,1,,,,,,,,,,,,,,,,,,,,,,,,,,,,,,,,,,,,,,,,,,,,,,,,,,,,,,,,,,,,,,,,,,,,,,,,,,,,,,,,,,,,,,,,,,,,,,,769.0057282999915,769.9578381000028,2,1,769.0057282999915,769.9578381000028,769.9552558999858,769.0057282999915,0.3129721999866888,,,,,,,,,,,,,,,,,,,,,,,,,,,,,,,1101,001,1,1,2022_Jan_31_0946,task_complete_blocked_LC_updated,2021.2.3,244.69381476574637,
,,,X,1,,,,,,,,,,,,,,,,,,,,,,,11,1,23,0,,,,,,,,,,,,,,,,,,,,,,,,,,,,,,,,,,,,,,,,,,,,,,,,,,,,,,,,,,,,,,,,,,,,,,,,,,,,,,,,,,,,,,,,,,,,,,,770.0119042999868,770.9607983999886,1,1,770.0119042999868,770.9607983999886,770.956898400007,None,0.5699163000099361,,,,,,,,,,,,,,,,,,,,,,,,,,,,,,,1101,001,1,1,2022_Jan_31_0946,task_complete_blocked_LC_updated,2021.2.3,244.69381476574637,
,,,X,1,,,,,,,,,,,,,,,,,,,,,,,12,0,24,0,,,,,,,,,,,,,,,,,,,,,,,,,,,,,,,,,,,,,,,,,,,,,,,,,,,,,,,,,,,,,,,,,,,,,,,,,,,,,,,,,,,,,,,,,,,,,,,771.0080308000033,771.9554433999874,1,1,771.0080308000033,771.9554433999874,771.9529545999831,None,0.5026114000065718,,,,,,,,,,,,,,,,,,,,,,,,,,,,,,,1101,001,1,1,2022_Jan_31_0946,task_complete_blocked_LC_updated,2021.2.3,244.69381476574637,
,,,O,2,,,,,,,,,,,,,,,,,,,,,,,12,1,25,1,,,,,,,,,,,,,,,,,,,,,,,,,,,,,,,,,,,,,,,,,,,,,,,,,,,,,,,,,,,,,,,,,,,,,,,,,,,,,,,,,,,,,,,,,,,,,,,772.0070007999893,772.9591275999846,2,1,772.0070007999893,772.9591275999846,772.9562462999893,772.0070007999893,0.3542085999797564,,,,,,,,,,,,,,,,,,,,,,,,,,,,,,,1101,001,1,1,2022_Jan_31_0946,task_complete_blocked_LC_updated,2021.2.3,244.69381476574637,
,,,X,1,,,,,,,,,,,,,,,,,,,,,,,13,0,26,0,,,,,,,,,,,,,,,,,,,,,,,,,,,,,,,,,,,,,,,,,,,,,,,,,,,,,,,,,,,,,,,,,,,,,,,,,,,,,,,,,,,,,,,,,,,,,,,773.0091538999986,773.9593622999964,1,1,773.0091538999986,773.9593622999964,773.9558464000002,None,0.4058921999821905,,,,,,,,,,,,,,,,,,,,,,,,,,,,,,,1101,001,1,1,2022_Jan_31_0946,task_complete_blocked_LC_updated,2021.2.3,244.69381476574637,
,,,O,2,,,,,,,,,,,,,,,,,,,,,,,13,1,27,1,,,,,,,,,,,,,,,,,,,,,,,,,,,,,,,,,,,,,,,,,,,,,,,,,,,,,,,,,,,,,,,,,,,,,,,,,,,,,,,,,,,,,,,,,,,,,,,774.0077661999967,774.9568962999911,2,1,774.0077661999967,774.9568962999911,774.9568962999911,774.0077661999967,0.30093769999803044,,,,,,,,,,,,,,,,,,,,,,,,,,,,,,,1101,001,1,1,2022_Jan_31_0946,task_complete_blocked_LC_updated,2021.2.3,244.69381476574637,
,,,X,1,,,,,,,,,,,,,,,,,,,,,,,14,0,28,0,,,,,,,,,,,,,,,,,,,,,,,,,,,,,,,,,,,,,,,,,,,,,,,,,,,,,,,,,,,,,,,,,,,,,,,,,,,,,,,,,,,,,,,,,,,,,,,775.008496399998,775.9560785999929,1,1,775.008496399998,775.9560785999929,775.9560785999929,None,0.34456570001202635,,,,,,,,,,,,,,,,,,,,,,,,,,,,,,,1101,001,1,1,2022_Jan_31_0946,task_complete_blocked_LC_updated,2021.2.3,244.69381476574637,
,,,O,2,,,,,,,,,,,,,,,,,,,,,,,14,1,29,1,,,,,,,,,,,,,,,,,,,,,,,,,,,,,,,,,,,,,,,,,,,,,,,,,,,,,,,,,,,,,,,,,,,,,,,,,,,,,,,,,,,,,,,,,,,,,,,776.0176195999957,776.9689139999973,2,1,776.0176195999957,776.9689139999973,776.959383999987,None,0.37068469999940135,,,,,,,,,,,,,,,,,,,,,,,,,,,,,,,1101,001,1,1,2022_Jan_31_0946,task_complete_blocked_LC_updated,2021.2.3,244.69381476574637,
,,,O,2,,,,,,,,,,,,,,,,,,,,,,,15,0,30,1,,,,,,,,,,,,,,,,,,,,,,,,,,,,,,,,,,,,,,,,,,,,,,,,,,,,,,,,,,,,,,,,,,,,,,,,,,,,,,,,,,,,,,,,,,,,,,,777.0076120999875,777.9605124999944,2,1,777.0076120999875,777.9605124999944,777.9566097999923,None,0.39534349998575635,,,,,,,,,,,,,,,,,,,,,,,,,,,,,,,1101,001,1,1,2022_Jan_31_0946,task_complete_blocked_LC_updated,2021.2.3,244.69381476574637,
,,,X,1,,,,,,,,,,,,,,,,,,,,,,,15,1,31,0,,,,,,,,,,,,,,,,,,,,,,,,,,,,,,,,,,,,,,,,,,,,,,,,,,,,,,,,,,,,,,,,,,,,,,,,,,,,,,,,,,,,,,,,,,,,,,,778.0100529000047,778.9609762000036,1,1,778.0100529000047,778.9609762000036,778.9572490999999,None,0.5076234999869484,,,,,,,,,,,,,,,,,,,,,,,,,,,,,,,1101,001,1,1,2022_Jan_31_0946,task_complete_blocked_LC_updated,2021.2.3,244.69381476574637,
,,,O,2,,,,,,,,,,,,,,,,,,,,,,,16,0,32,1,,,,,,,,,,,,,,,,,,,,,,,,,,,,,,,,,,,,,,,,,,,,,,,,,,,,,,,,,,,,,,,,,,,,,,,,,,,,,,,,,,,,,,,,,,,,,,,779.0092949999962,779.960036799981,2,1,779.0092949999962,779.960036799981,779.955121499981,None,0.5412979999964591,,,,,,,,,,,,,,,,,,,,,,,,,,,,,,,1101,001,1,1,2022_Jan_31_0946,task_complete_blocked_LC_updated,2021.2.3,244.69381476574637,
,,,X,1,,,,,,,,,,,,,,,,,,,,,,,16,1,33,0,,,,,,,,,,,,,,,,,,,,,,,,,,,,,,,,,,,,,,,,,,,,,,,,,,,,,,,,,,,,,,,,,,,,,,,,,,,,,,,,,,,,,,,,,,,,,,,780.0136629999906,780.9646386999812,1,1,780.0136629999906,780.9646386999812,780.9610481999989,None,0.6172071000037249,,,,,,,,,,,,,,,,,,,,,,,,,,,,,,,1101,001,1,1,2022_Jan_31_0946,task_complete_blocked_LC_updated,2021.2.3,244.69381476574637,
,,,X,1,,,,,,,,,,,,,,,,,,,,,,,17,0,34,0,,,,,,,,,,,,,,,,,,,,,,,,,,,,,,,,,,,,,,,,,,,,,,,,,,,,,,,,,,,,,,,,,,,,,,,,,,,,,,,,,,,,,,,,,,,,,,,781.0081617999822,781.9581443000061,1,1,781.0081617999822,781.9581443000061,781.9549624999927,None,0.5648292000114452,,,,,,,,,,,,,,,,,,,,,,,,,,,,,,,1101,001,1,1,2022_Jan_31_0946,task_complete_blocked_LC_updated,2021.2.3,244.69381476574637,
,,,O,2,,,,,,,,,,,,,,,,,,,,,,,17,1,35,1,,,,,,,,,,,,,,,,,,,,,,,,,,,,,,,,,,,,,,,,,,,,,,,,,,,,,,,,,,,,,,,,,,,,,,,,,,,,,,,,,,,,,,,,,,,,,,,782.0080410999944,782.9610132999951,2,1,782.0080410999944,782.9610132999951,782.9575593000045,None,0.4829308000043966,,,,,,,,,,,,,,,,,,,,,,,,,,,,,,,1101,001,1,1,2022_Jan_31_0946,task_complete_blocked_LC_updated,2021.2.3,244.69381476574637,
,,,O,2,,,,,,,,,,,,,,,,,,,,,,,18,0,36,1,,,,,,,,,,,,,,,,,,,,,,,,,,,,,,,,,,,,,,,,,,,,,,,,,,,,,,,,,,,,,,,,,,,,,,,,,,,,,,,,,,,,,,,,,,,,,,,783.0080773000082,783.9590023999917,2,1,783.0080773000082,783.9590023999917,783.955232999986,None,0.43667480000294745,,,,,,,,,,,,,,,,,,,,,,,,,,,,,,,1101,001,1,1,2022_Jan_31_0946,task_complete_blocked_LC_updated,2021.2.3,244.69381476574637,
,,,X,1,,,,,,,,,,,,,,,,,,,,,,,18,1,37,0,,,,,,,,,,,,,,,,,,,,,,,,,,,,,,,,,,,,,,,,,,,,,,,,,,,,,,,,,,,,,,,,,,,,,,,,,,,,,,,,,,,,,,,,,,,,,,,784.0070555999991,784.9597490000015,1,1,784.0070555999991,784.9597490000015,784.9558377999929,None,0.47908709998591803,,,,,,,,,,,,,,,,,,,,,,,,,,,,,,,1101,001,1,1,2022_Jan_31_0946,task_complete_blocked_LC_updated,2021.2.3,244.69381476574637,
,,,O,2,,,,,,,,,,,,,,,,,,,,,,,19,0,38,1,,,,,,,,,,,,,,,,,,,,,,,,,,,,,,,,,,,,,,,,,,,,,,,,,,,,,,,,,,,,,,,,,,,,,,,,,,,,,,,,,,,,,,,,,,,,,,,785.0095659999934,785.9591357999889,2,1,785.0095659999934,785.9591357999889,785.9549156999856,None,0.538334799988661,,,,,,,,,,,,,,,,,,,,,,,,,,,,,,,1101,001,1,1,2022_Jan_31_0946,task_complete_blocked_LC_updated,2021.2.3,244.69381476574637,
,,,X,1,,,,,,,,,,,,,,,,,,,,,,,19,1,39,0,,,,,,,,,,,,,,,,,,,,,,,,,,,,,,,,,,,,,,,,,,,,,,,,,,,,,,,,,,,,,,,,,,,,,,,,,,,,,,,,,,,,,,,,,,,,,,,786.0123423000041,786.9608446999919,1,1,786.0123423000041,786.9608446999919,786.9575414999854,None,0.5406732999836095,,,,,,,,,,,,,,,,,,,,,,,,,,,,,,,1101,001,1,1,2022_Jan_31_0946,task_complete_blocked_LC_updated,2021.2.3,244.69381476574637,
,,,X,1,,,,,,,,,,,,,,,,,,,,,,,20,0,40,0,,,,,,,,,,,,,,,,,,,,,,,,,,,,,,,,,,,,,,,,,,,,,,,,,,,,,,,,,,,,,,,,,,,,,,,,,,,,,,,,,,,,,,,,,,,,,,,787.0077250000031,787.9593478000024,1,1,787.0077250000031,787.9593478000024,787.9553892999829,None,0.445906200009631,,,,,,,,,,,,,,,,,,,,,,,,,,,,,,,1101,001,1,1,2022_Jan_31_0946,task_complete_blocked_LC_updated,2021.2.3,244.69381476574637,
,,,O,2,,,,,,,,,,,,,,,,,,,,,,,20,1,41,1,,,,,,,,,,,,,,,,,,,,,,,,,,,,,,,,,,,,,,,,,,,,,,,,,,,,,,,,,,,,,,,,,,,,,,,,,,,,,,,,,,,,,,,,,,,,,,,788.0093311000091,788.9587933000003,2,1,788.0093311000091,788.9587933000003,788.9544031999831,None,0.4861337000038475,,,,,,,,,,,,,,,,,,,,,,,,,,,,,,,1101,001,1,1,2022_Jan_31_0946,task_complete_blocked_LC_updated,2021.2.3,244.69381476574637,
,,,X,1,,,,,,,,,,,,,,,,,,,,,,,21,0,42,0,,,,,,,,,,,,,,,,,,,,,,,,,,,,,,,,,,,,,,,,,,,,,,,,,,,,,,,,,,,,,,,,,,,,,,,,,,,,,,,,,,,,,,,,,,,,,,,789.0135642999958,789.9633161999809,1,1,789.0135642999958,789.9633161999809,789.9598997999856,None,0.5943146999925375,,,,,,,,,,,,,,,,,,,,,,,,,,,,,,,1101,001,1,1,2022_Jan_31_0946,task_complete_blocked_LC_updated,2021.2.3,244.69381476574637,
,,,O,2,,,,,,,,,,,,,,,,,,,,,,,21,1,43,1,,,,,,,,,,,,,,,,,,,,,,,,,,,,,,,,,,,,,,,,,,,,,,,,,,,,,,,,,,,,,,,,,,,,,,,,,,,,,,,,,,,,,,,,,,,,,,,790.010062699992,790.9609120999812,2,1,790.010062699992,790.9609120999812,790.956820899999,None,0.3730992999917362,,,,,,,,,,,,,,,,,,,,,,,,,,,,,,,1101,001,1,1,2022_Jan_31_0946,task_complete_blocked_LC_updated,2021.2.3,244.69381476574637,
,,,O,2,,,,,,,,,,,,,,,,,,,,,,,22,0,44,1,,,,,,,,,,,,,,,,,,,,,,,,,,,,,,,,,,,,,,,,,,,,,,,,,,,,,,,,,,,,,,,,,,,,,,,,,,,,,,,,,,,,,,,,,,,,,,,791.0120731999923,791.9617531999829,2,1,791.0120731999923,791.9617531999829,791.9570708999818,None,0.3568819999927655,,,,,,,,,,,,,,,,,,,,,,,,,,,,,,,1101,001,1,1,2022_Jan_31_0946,task_complete_blocked_LC_updated,2021.2.3,244.69381476574637,
,,,X,1,,,,,,,,,,,,,,,,,,,,,,,22,1,45,0,,,,,,,,,,,,,,,,,,,,,,,,,,,,,,,,,,,,,,,,,,,,,,,,,,,,,,,,,,,,,,,,,,,,,,,,,,,,,,,,,,,,,,,,,,,,,,,792.0072102999839,792.9584419000021,1,1,792.0072102999839,792.9584419000021,792.955861399998,None,0.6659990999905858,,,,,,,,,,,,,,,,,,,,,,,,,,,,,,,1101,001,1,1,2022_Jan_31_0946,task_complete_blocked_LC_updated,2021.2.3,244.69381476574637,
,,,X,1,,,,,,,,,,,,,,,,,,,,,,,23,0,46,0,,,,,,,,,,,,,,,,,,,,,,,,,,,,,,,,,,,,,,,,,,,,,,,,,,,,,,,,,,,,,,,,,,,,,,,,,,,,,,,,,,,,,,,,,,,,,,,793.0077613999892,793.9578702999861,1,1,793.0077613999892,793.9578702999861,793.9544696999947,None,0.7762396999751218,,,,,,,,,,,,,,,,,,,,,,,,,,,,,,,1101,001,1,1,2022_Jan_31_0946,task_complete_blocked_LC_updated,2021.2.3,244.69381476574637,
,,,O,2,,,,,,,,,,,,,,,,,,,,,,,23,1,47,1,,,,,,,,,,,,,,,,,,,,,,,,,,,,,,,,,,,,,,,,,,,,,,,,,,,,,,,,,,,,,,,,,,,,,,,,,,,,,,,,,,,,,,,,,,,,,,,794.0071356999979,794.9577508000075,2,1,794.0071356999979,794.9577508000075,794.9549326999986,794.0071356999979,0.490637400012929,,,,,,,,,,,,,,,,,,,,,,,,,,,,,,,1101,001,1,1,2022_Jan_31_0946,task_complete_blocked_LC_updated,2021.2.3,244.69381476574637,
,,,O,2,,,,,,,,,,,,,,,,,,,,,,,24,0,48,1,,,,,,,,,,,,,,,,,,,,,,,,,,,,,,,,,,,,,,,,,,,,,,,,,,,,,,,,,,,,,,,,,,,,,,,,,,,,,,,,,,,,,,,,,,,,,,,795.0076185000071,795.9584069999983,2,1,795.0076185000071,795.9584069999983,795.9555710999994,795.0076185000071,0.44735600001877174,,,,,,,,,,,,,,,,,,,,,,,,,,,,,,,1101,001,1,1,2022_Jan_31_0946,task_complete_blocked_LC_updated,2021.2.3,244.69381476574637,
,,,X,1,,,,,,,,,,,,,,,,,,,,,,,24,1,49,0,,,,,,,,,,,,,,,,,,,,,,,,,,,,,,,,,,,,,,,,,,,,,,,,,,,,,,,,,,,,,,,,,,,,,,,,,,,,,,,,,,,,,,,,,,,,,,,796.0087808999815,796.960004099994,1,1,796.0087808999815,796.960004099994,796.9567923999857,None,0.487927199981641,,,,,,,,,,,,,,,,,,,,,,,,,,,,,,,1101,001,1,1,2022_Jan_31_0946,task_complete_blocked_LC_updated,2021.2.3,244.69381476574637,
,,,X,1,,,,,,,,,,,,,,,,,,,,,,,25,0,50,0,,,,,,,,,,,,,,,,,,,,,,,,,,,,,,,,,,,,,,,,,,,,,,,,,,,,,,,,,,,,,,,,,,,,,,,,,,,,,,,,,,,,,,,,,,,,,,,797.007771500008,797.9594711999816,1,1,797.007771500008,797.9594711999816,797.9572000000044,None,0.44123450000188313,,,,,,,,,,,,,,,,,,,,,,,,,,,,,,,1101,001,1,1,2022_Jan_31_0946,task_complete_blocked_LC_updated,2021.2.3,244.69381476574637,
,,,O,2,,,,,,,,,,,,,,,,,,,,,,,25,1,51,1,,,,,,,,,,,,,,,,,,,,,,,,,,,,,,,,,,,,,,,,,,,,,,,,,,,,,,,,,,,,,,,,,,,,,,,,,,,,,,,,,,,,,,,,,,,,,,,798.008568099991,798.9581523000088,2,1,798.008568099991,798.9581523000088,798.9551145999867,None,0.40622249999432825,,,,,,,,,,,,,,,,,,,,,,,,,,,,,,,1101,001,1,1,2022_Jan_31_0946,task_complete_blocked_LC_updated,2021.2.3,244.69381476574637,
,,,X,1,,,,,,,,,,,,,,,,,,,,,,,26,0,52,0,,,,,,,,,,,,,,,,,,,,,,,,,,,,,,,,,,,,,,,,,,,,,,,,,,,,,,,,,,,,,,,,,,,,,,,,,,,,,,,,,,,,,,,,,,,,,,,799.0078848999983,799.9609826999949,1,1,799.0078848999983,799.9609826999949,799.9526448999823,799.0078848999983,0.6824272000230849,,,,,,,,,,,,,,,,,,,,,,,,,,,,,,,1101,001,1,1,2022_Jan_31_0946,task_complete_blocked_LC_updated,2021.2.3,244.69381476574637,
,,,O,2,,,,,,,,,,,,,,,,,,,,,,,26,1,53,1,,,,,,,,,,,,,,,,,,,,,,,,,,,,,,,,,,,,,,,,,,,,,,,,,,,,,,,,,,,,,,,,,,,,,,,,,,,,,,,,,,,,,,,,,,,,,,,800.0067313000036,800.9552983999893,2,1,800.0067313000036,800.9552983999893,800.9552983999893,800.0067313000036,0.7472381000116002,,,,,,,,,,,,,,,,,,,,,,,,,,,,,,,1101,001,1,1,2022_Jan_31_0946,task_complete_blocked_LC_updated,2021.2.3,244.69381476574637,
,,,O,2,,,,,,,,,,,,,,,,,,,,,,,27,0,54,1,,,,,,,,,,,,,,,,,,,,,,,,,,,,,,,,,,,,,,,,,,,,,,,,,,,,,,,,,,,,,,,,,,,,,,,,,,,,,,,,,,,,,,,,,,,,,,,801.0078800999909,801.9561728999834,2,1,801.0078800999909,801.9561728999834,801.9537162999914,None,0.44612599999527447,,,,,,,,,,,,,,,,,,,,,,,,,,,,,,,1101,001,1,1,2022_Jan_31_0946,task_complete_blocked_LC_updated,2021.2.3,244.69381476574637,
,,,X,1,,,,,,,,,,,,,,,,,,,,,,,27,1,55,0,,,,,,,,,,,,,,,,,,,,,,,,,,,,,,,,,,,,,,,,,,,,,,,,,,,,,,,,,,,,,,,,,,,,,,,,,,,,,,,,,,,,,,,,,,,,,,,802.0097208000079,802.9596308000037,1,1,802.0097208000079,802.9596308000037,802.9560241999861,802.0097208000079,0.5085027999884915,,,,,,,,,,,,,,,,,,,,,,,,,,,,,,,1101,001,1,1,2022_Jan_31_0946,task_complete_blocked_LC_updated,2021.2.3,244.69381476574637,
,,,X,1,,,,,,,,,,,,,,,,,,,,,,,28,0,56,0,,,,,,,,,,,,,,,,,,,,,,,,,,,,,,,,,,,,,,,,,,,,,,,,,,,,,,,,,,,,,,,,,,,,,,,,,,,,,,,,,,,,,,,,,,,,,,,803.0085704000085,803.9620078000007,1,1,803.0085704000085,803.9620078000007,803.9531014999957,None,0.7120924000046216,,,,,,,,,,,,,,,,,,,,,,,,,,,,,,,1101,001,1,1,2022_Jan_31_0946,task_complete_blocked_LC_updated,2021.2.3,244.69381476574637,
,,,O,2,,,,,,,,,,,,,,,,,,,,,,,28,1,57,1,,,,,,,,,,,,,,,,,,,,,,,,,,,,,,,,,,,,,,,,,,,,,,,,,,,,,,,,,,,,,,,,,,,,,,,,,,,,,,,,,,,,,,,,,,,,,,,804.0067150999967,804.9593588999996,2,1,804.0067150999967,804.9593588999996,804.956440000009,804.0067150999967,0.41391760000260547,,,,,,,,,,,,,,,,,,,,,,,,,,,,,,,1101,001,1,1,2022_Jan_31_0946,task_complete_blocked_LC_updated,2021.2.3,244.69381476574637,
,,,O,2,,,,,,,,,,,,,,,,,,,,,,,29,0,58,1,,,,,,,,,,,,,,,,,,,,,,,,,,,,,,,,,,,,,,,,,,,,,,,,,,,,,,,,,,,,,,,,,,,,,,,,,,,,,,,,,,,,,,,,,,,,,,,805.0078856000036,805.9596756999963,2,1,805.0078856000036,805.9596756999963,805.9564894000068,None,0.3679881000134628,,,,,,,,,,,,,,,,,,,,,,,,,,,,,,,1101,001,1,1,2022_Jan_31_0946,task_complete_blocked_LC_updated,2021.2.3,244.69381476574637,
,,,X,1,,,,,,,,,,,,,,,,,,,,,,,29,1,59,0,,,,,,,,,,,,,,,,,,,,,,,,,,,,,,,,,,,,,,,,,,,,,,,,,,,,,,,,,,,,,,,,,,,,,,,,,,,,,,,,,,,,,,,,,,,,,,,806.0097214999842,806.9649121999973,1,1,806.0097214999842,806.9649121999973,806.9649121999973,None,0.37385999999241903,,,,,,,,,,,,,,,,,,,,,,,,,,,,,,,1101,001,1,1,2022_Jan_31_0946,task_complete_blocked_LC_updated,2021.2.3,244.69381476574637,
,,,,,,,,,,,,,,,,,,,,,,,,,,,,,,,,,,,,,,,,,,,,,,,,,,,,,,,,,,,,,,,,,,,,,,,,,,,,,,,,,,,,,,,,,,,,,,,,,,,,,,,,,,,,,,,,,,,,,,,,,,,,,,,,,,,,,,807.0078781000047,None,space,46.095318700012285,812.0083718999813,None,,,,,,,,,,,,,,,,,,,,,,,,,1101,001,1,1,2022_Jan_31_0946,task_complete_blocked_LC_updated,2021.2.3,244.69381476574637,
,,,,,,,,,,,,,,,,,,,,,,,,,,,,,,,,,,,,,,,,,,,,,,,,,,,,,,,,,,,,,,,,,,,,,,,,,,,,,,,,,,,,,,,,,,,,,,,858.1128812999814,None,5,13.104766100004781,858.1128812999814,None,,,,,,,,,,,,,,,,,,,,,,,,,,,,,,,,,,,,,,,,812.0083718999813,None,,,,,,,,,,,,,,,,,,,,,,,1101,001,1,1,2022_Jan_31_0946,task_complete_blocked_LC_updated,2021.2.3,244.69381476574637,
stimulus_images/AAFRICI13.jpg,SPACE,0,,,,,,,,,,,,,,,,,,,,,,,,,,,,,0,0,0,1,,,,,,,,,,,,,,,,,,,,,,,,,,,,,,,,,,,,,,,,,,,,,,,,,,,,,,,,,,,,,,,,,,,2.7999922167509794e-06,871.2409804000054,873.2416796000034,871.2409804000054,873.2416796000034,872.2379879000073,873.238268999994,872.2379879000073,873.238268999994,873.2347027999931,None,5.9933083999785595,877.2291697000037,None,877.2291697000037,None,2,1.2605719999992289,877.2291697000037,None,883.2306305999809,None,,,,,,,,,,,,,,,,,,,,,,,,,,,,,,,,,,,,,,,,,,1101,001,1,1,2022_Jan_31_0946,task_complete_blocked_LC_updated,2021.2.3,244.69381476574637,
stimulus_images/AFILM.jpg,SPACE,0,,,,,,,,,,,,,,,,,,,,,,,,,,,,,0,1,1,9,,,,,,,,,,,,,,,,,,,,,,,,,,,,,,,,,,,,,,,,,,,,,,,,,,,,,,,,,,,,,,,,,,,12.99883039999986,884.2390607999987,886.2446234999807,884.2390607999987,886.2446234999807,885.2333250000083,886.2405239999935,885.2333250000083,886.2405239999935,886.2318183000025,None,18.99899649998406,890.2351441000064,None,890.2351441000064,None,3,1.6095312999968883,890.2351441000064,None,896.2360465999809,None,,,,,,,,,,,,,,,,,,,,,,,,,,,,,,,,,,,,,,,,,,1101,001,1,1,2022_Jan_31_0946,task_complete_blocked_LC_updated,2021.2.3,244.69381476574637,
stimulus_images/A1OCLOC2.jpg,SPACE,0,,,,,,,,,,,,,,,,,,,,,,,,,,,,,0,2,2,0,,,,,,,,,,,,,,,,,,,,,,,,,,,,,,,,,,,,,,,,,,,,,,,,,,,,,,,,,,,,,,,,,,,28.003612799977418,899.2433400999871,901.2421511999855,899.2433400999871,901.2421511999855,900.2377716999908,901.2391674999963,900.2377716999908,901.2391674999963,901.2391674999963,None,34.00571889997809,905.2418959999923,None,905.2418959999923,None,4,0.9010080000152811,905.2418959999923,None,911.2432579000015,None,,,,,,,,,,,,,,,,,,,,,,,,,,,,,,,,,,,,,,,,,,1101,001,1,1,2022_Jan_31_0946,task_complete_blocked_LC_updated,2021.2.3,244.69381476574637,
stimulus_images/Achair608.jpg,SPACE,0,,,,,,,,,,,,,,,,,,,,,,,,,,,,,0,3,3,7,,,,,,,,,,,,,,,,,,,,,,,,,,,,,,,,,,,,,,,,,,,,,,,,,,,,,,,,,,,,,,,,,,,43.011497799976496,914.2512883000018,916.252404400002,914.2512883000018,916.252404400002,915.2440403999935,916.2462134000089,915.2440403999935,916.2462134000089,916.2462134000089,None,49.013083700003335,920.2500292999903,None,920.2500292999903,None,None,,920.2500292999903,None,926.252849499986,None,,,,,,,,,,,,,,,,,,,,,,,,,,,,,,,,,,,,,,,,,,1101,001,1,1,2022_Jan_31_0946,task_complete_blocked_LC_updated,2021.2.3,244.69381476574637,
stimulus_images/AANTIBIK4.jpg,SPACE,1,,,,,,,,,,,,,,,,,,,,,,,,,,,,,0,4,4,2,,,,,,,,,,,,,,,,,,,,,,,,,,,,,,,,,,,,,,,,,,,,,,,,,,,,,,,,,,,,,,,,,,,56.02405349997571,927.2636655000097,929.2629190000007,927.2636655000097,929.2629190000007,928.2575244999898,929.2603169000067,928.2575244999898,929.2603169000067,929.2603169000067,None,62.02665960000013,933.2637678000028,None,933.2637678000028,None,2,1.6289008999883663,933.2637678000028,None,939.2686496999813,None,,,,,,,,,,,,,,,,,,,,,,,,,,,,,,,,,,,,,,,,,,1101,001,1,1,2022_Jan_31_0946,task_complete_blocked_LC_updated,2021.2.3,244.69381476574637,
stimulus_images/Abaseballcap.jpg,SPACE,0,,,,,,,,,,,,,,,,,,,,,,,,,,,,,0,5,5,4,,,,,,,,,,,,,,,,,,,,,,,,,,,,,,,,,,,,,,,,,,,,,,,,,,,,,,,,,,,,,,,,,,,69.03599679999752,940.2753535000084,942.2806597999879,940.2753535000084,942.2806597999879,941.2731301999884,942.2806597999879,941.2731301999884,942.2806597999879,942.2768939000089,None,75.0392423000012,946.2758939999912,None,946.2758939999912,None,4,0.6282767999800853,946.2758939999912,None,952.2758825999917,None,,,,,,,,,,,,,,,,,,,,,,,,,,,,,,,,,,,,,,,,,,1101,001,1,1,2022_Jan_31_0946,task_complete_blocked_LC_updated,2021.2.3,244.69381476574637,
stimulus_images/ABULLDOG5.jpg,SPACE,0,,,,,,,,,,,,,,,,,,,,,,,,,,,,,0,6,6,6,,,,,,,,,,,,,,,,,,,,,,,,,,,,,,,,,,,,,,,,,,,,,,,,,,,,,,,,,,,,,,,,,,,84.04097919998458,955.2800924000039,957.2800461000006,955.2800924000039,957.2800461000006,956.2757581000042,957.2770657000074,956.2757581000042,957.2770657000074,957.2770657000074,None,90.0434910999902,961.2798877999885,None,961.2798877999885,None,4,1.1618012000108138,961.2798877999885,None,967.281124400004,None,,,,,,,,,,,,,,,,,,,,,,,,,,,,,,,,,,,,,,,,,,1101,001,1,1,2022_Jan_31_0946,task_complete_blocked_LC_updated,2021.2.3,244.69381476574637,
stimulus_images/Ababseat2.jpg,SPACE,0,,,,,,,,,,,,,,,,,,,,,,,,,,,,,0,7,7,3,,,,,,,,,,,,,,,,,,,,,,,,,,,,,,,,,,,,,,,,,,,,,,,,,,,,,,,,,,,,,,,,,,,98.04527439997764,969.2848205000046,971.2827969999926,969.2848205000046,971.2827969999926,970.2808160999848,971.2827969999926,970.2808160999848,971.2827969999926,971.2798279999988,None,104.04535219998797,975.2816605999833,None,975.2816605999833,None,3,1.1996395999740344,975.2816605999833,None,981.2817870999861,None,,,,,,,,,,,,,,,,,,,,,,,,,,,,,,,,,,,,,,,,,,1101,001,1,1,2022_Jan_31_0946,task_complete_blocked_LC_updated,2021.2.3,244.69381476574637,
stimulus_images/Ablackma3.jpg,SPACE,1,,,,,,,,,,,,,,,,,,,,,,,,,,,,,0,8,8,5,,,,,,,,,,,,,,,,,,,,,,,,,,,,,,,,,,,,,,,,,,,,,,,,,,,,,,,,,,,,,,,,,,,112.04966209997656,983.2934482999844,985.294051600009,983.2934482999844,985.294051600009,984.2888712999993,985.2902620999957,984.2888712999993,985.2902620999957,985.2819568999985,None,118.04969909999636,989.2859800999868,None,989.2859800999868,None,4,1.6800387999974191,989.2859800999868,None,995.287414099992,None,,,,,,,,,,,,,,,,,,,,,,,,,,,,,,,,,,,,,,,,,,1101,001,1,1,2022_Jan_31_0946,task_complete_blocked_LC_updated,2021.2.3,244.69381476574637,
stimulus_images/acquarium.jpg,SPACE,1,,,,,,,,,,,,,,,,,,,,,,,,,,,,,0,9,9,8,,,,,,,,,,,,,,,,,,,,,,,,,,,,,,,,,,,,,,,,,,,,,,,,,,,,,,,,,,,,,,,,,,,126.05338239998673,997.2973186000017,999.3016511999886,997.2973186000017,999.3016511999886,998.288885099988,999.2903986999881,998.288885099988,999.2903986999881,999.2865951999847,None,132.0541368999984,1003.2902950999851,None,1003.2902950999851,None,4,1.6477919000026304,1003.2902950999851,None,1009.2936015999876,None,,,,,,,,,,,,,,,,,,,,,,,,,,,,,,,,,,,,,,,,,,1101,001,1,1,2022_Jan_31_0946,task_complete_blocked_LC_updated,2021.2.3,244.69381476574637,
stimulus_images/Apedestal3.jpg,SPACE,0,,,,,,,,,,,,,,,,,,,,,,,,,,,,,,,,,0,0,0,2,,,,,,,,,,,,,,,,,,,,,,,,,,,,,,,,,,,,,,,,,,,,,,,,,,,,,,,,,,,,,,,140.06423920000088,1011.3099014000036,1013.3094077999995,1011.3099014000036,1013.3094077999995,1012.305189799983,1013.3094077999995,1012.305189799983,1013.3094077999995,1013.3064184999967,None,146.06122719999985,1017.2972550999839,None,1017.2972550999839,None,1,1.1925983999972232,1017.2972550999839,None,1023.2955306000076,None,,,,,,,,,,,,,,,,,,,,,,,,,,,,,,,,,,,,,,,,,,1101,001,1,1,2022_Jan_31_0946,task_complete_blocked_LC_updated,2021.2.3,244.69381476574637,
stimulus_images/Atoywheels.jpg,SPACE,0,,,,,,,,,,,,,,,,,,,,,,,,,,,,,,,,,0,1,1,4,,,,,,,,,,,,,,,,,,,,,,,,,,,,,,,,,,,,,,,,,,,,,,,,,,,,,,,,,,,,,,,155.06198519997997,1026.301644799998,1028.30144499999,1026.301644799998,1028.30144499999,1027.2972669999872,1028.2990537000005,1027.2972669999872,1028.2990537000005,1028.2990537000005,None,161.06470679998165,1032.3011669999978,None,1032.3011669999978,None,3,0.7355847000144422,1032.3011669999978,None,1038.3035175999976,None,,,,,,,,,,,,,,,,,,,,,,,,,,,,,,,,,,,,,,,,,,1101,001,1,1,2022_Jan_31_0946,task_complete_blocked_LC_updated,2021.2.3,244.69381476574637,
stimulus_images/Asaxophone.jpg,SPACE,1,,,,,,,,,,,,,,,,,,,,,,,,,,,,,,,,,0,2,2,3,,,,,,,,,,,,,,,,,,,,,,,,,,,,,,,,,,,,,,,,,,,,,,,,,,,,,,,,,,,,,,,169.06900819999282,1040.3154805999948,1042.3160705000046,1040.3154805999948,1042.3160705000046,1041.3145681000024,1042.3160705000046,1041.3145681000024,1042.3160705000046,1042.3160705000046,None,175.06910289998632,1046.3052987999981,None,1046.3052987999981,None,4,0.9824563000001945,1046.3052987999981,None,1052.3071787999943,None,,,,,,,,,,,,,,,,,,,,,,,,,,,,,,,,,,,,,,,,,,1101,001,1,1,2022_Jan_31_0946,task_complete_blocked_LC_updated,2021.2.3,244.69381476574637,
stimulus_images/woodvase.jpg,SPACE,1,,,,,,,,,,,,,,,,,,,,,,,,,,,,,,,,,0,3,3,6,,,,,,,,,,,,,,,,,,,,,,,,,,,,,,,,,,,,,,,,,,,,,,,,,,,,,,,,,,,,,,,182.07632959997864,1053.3310220999992,1055.3320291999844,1053.3310220999992,1055.3320291999844,1054.3252135000075,1055.3279565999983,1054.3252135000075,1055.3279565999983,1055.3238996999862,None,188.0777508999745,1059.3143909999926,None,1059.3143909999926,None,3,1.7982969000004232,1059.3143909999926,None,1065.3122134000005,None,,,,,,,,,,,,,,,,,,,,,,,,,,,,,,,,,,,,,,,,,,1101,001,1,1,2022_Jan_31_0946,task_complete_blocked_LC_updated,2021.2.3,244.69381476574637,
stimulus_images/ALAMP.jpg,SPACE,0,,,,,,,,,,,,,,,,,,,,,,,,,,,,,,,,,0,4,4,1,,,,,,,,,,,,,,,,,,,,,,,,,,,,,,,,,,,,,,,,,,,,,,,,,,,,,,,,,,,,,,,195.07924299998558,1066.3255403999938,1068.3264652999933,1066.3255403999938,1068.3264652999933,1067.322234399995,1068.3264652999933,1067.322234399995,1068.3264652999933,1068.3264652999933,None,201.08174269998563,1072.3180697000062,None,1072.3180697000062,None,4,0.9069286999874748,1072.3180697000062,None,1078.3198414999933,None,,,,,,,,,,,,,,,,,,,,,,,,,,,,,,,,,,,,,,,,,,1101,001,1,1,2022_Jan_31_0946,task_complete_blocked_LC_updated,2021.2.3,244.69381476574637,
stimulus_images/AAIRPUMP2.jpg,SPACE,0,,,,,,,,,,,,,,,,,,,,,,,,,,,,,,,,,0,5,5,8,,,,,,,,,,,,,,,,,,,,,,,,,,,,,,,,,,,,,,,,,,,,,,,,,,,,,,,,,,,,,,,210.0877751999942,1081.3342944000033,1083.3351985999907,1081.3342944000033,1083.3351985999907,1082.3348070000065,1083.3351985999907,1082.3348070000065,1083.3351985999907,1083.3321216999902,None,216.09022779998486,1087.3313066999835,None,1087.3313066999835,None,4,0.564545300003374,1087.3313066999835,None,1093.3236550999864,None,,,,,,,,,,,,,,,,,,,,,,,,,,,,,,,,,,,,,,,,,,1101,001,1,1,2022_Jan_31_0946,task_complete_blocked_LC_updated,2021.2.3,244.69381476574637,
stimulus_images/Aantiquejuke2.jpg,SPACE,0,,,,,,,,,,,,,,,,,,,,,,,,,,,,,,,,,0,6,6,9,,,,,,,,,,,,,,,,,,,,,,,,,,,,,,,,,,,,,,,,,,,,,,,,,,,,,,,,,,,,,,,223.09186709998176,1094.3312826000038,1096.3307732999965,1094.3312826000038,1096.3307732999965,1095.3324352999916,1096.3352232000034,1095.3324352999916,1096.3352232000034,1096.3265911999915,None,229.0922550999967,1100.3282739999995,None,1100.3282739999995,None,4,1.4034197999862954,1100.3282739999995,None,1106.3286408999993,None,,,,,,,,,,,,,,,,,,,,,,,,,,,,,,,,,,,,,,,,,,1101,001,1,1,2022_Jan_31_0946,task_complete_blocked_LC_updated,2021.2.3,244.69381476574637,
stimulus_images/A4DOMINO.jpg,SPACE,0,,,,,,,,,,,,,,,,,,,,,,,,,,,,,,,,,0,7,7,7,,,,,,,,,,,,,,,,,,,,,,,,,,,,,,,,,,,,,,,,,,,,,,,,,,,,,,,,,,,,,,,237.0954751999816,1108.3413489999948,1110.3432867999945,1108.3413489999948,1110.3432867999945,1109.335364300001,1110.3356428999978,1109.335364300001,1110.3356428999978,1110.3356428999978,None,243.09899249998853,1114.3349226999853,None,1114.3349226999853,None,3,1.1829610999848228,1114.3349226999853,None,1120.3351218999887,None,,,,,,,,,,,,,,,,,,,,,,,,,,,,,,,,,,,,,,,,,,1101,001,1,1,2022_Jan_31_0946,task_complete_blocked_LC_updated,2021.2.3,244.69381476574637,
stimulus_images/keys-a.jpg,SPACE,0,,,,,,,,,,,,,,,,,,,,,,,,,,,,,,,,,0,8,8,5,,,,,,,,,,,,,,,,,,,,,,,,,,,,,,,,,,,,,,,,,,,,,,,,,,,,,,,,,,,,,,,251.1005174999882,1122.3401469999808,1124.3415703999926,1122.3401469999808,1124.3415703999926,1123.3400850000035,1124.3415703999926,1123.3400850000035,1124.3415703999926,1124.3379605000082,None,257.10294969999813,1128.3391573999834,None,1128.3391573999834,None,4,3.211918599990895,1128.3391573999834,None,1134.34166559999,None,,,,,,,,,,,,,,,,,,,,,,,,,,,,,,,,,,,,,,,,,,1101,001,1,1,2022_Jan_31_0946,task_complete_blocked_LC_updated,2021.2.3,244.69381476574637,
stimulus_images/Agrilledmeata.jpg,SPACE,0,,,,,,,,,,,,,,,,,,,,,,,,,,,,,,,,,0,9,9,0,,,,,,,,,,,,,,,,,,,,,,,,,,,,,,,,,,,,,,,,,,,,,,,,,,,,,,,,,,,,,,,265.1089193999942,1136.3485519999813,1138.3475581000093,1136.3485519999813,1138.3475581000093,1137.3440198999888,1138.3438460000034,1137.3440198999888,1138.3438460000034,1138.3438460000034,None,271.1092179999978,1142.3461050000042,None,1142.3461050000042,None,3,1.5734861999808345,1142.3461050000042,None,1148.3479633999814,None,,,,,,,,,,,,,,,,,,,,,,,,,,,,,,,,,,,,,,,,,,1101,001,1,1,2022_Jan_31_0946,task_complete_blocked_LC_updated,2021.2.3,244.69381476574637,
,,,O,2,,,,,,,,,,,,,,,,,,,,,,,,,,,,,,,,,,,0,0,0,1,,,,,,,,,,,,,,,,,,,,,,,,,,,,,,,,,,,,,,,,,,,,,,,,,,,,,,,,,,,,,,,,,,,,,,,,,,,,,,,,,1151.3485317000013,None,1154.3584689999989,1155.307493100001,2,1,1154.3584689999989,1155.307493100001,1155.301200899994,None,0.7958384999947157,,,,,,,,,,,,,,,,,,,,,,,,,,,,,,,1101,001,1,1,2022_Jan_31_0946,task_complete_blocked_LC_updated,2021.2.3,244.69381476574637,
,,,X,1,,,,,,,,,,,,,,,,,,,,,,,,,,,,,,,,,,,0,1,1,0,,,,,,,,,,,,,,,,,,,,,,,,,,,,,,,,,,,,,,,,,,,,,,,,,,,,,,,,,,,,,,,,,,,,,,,,,,,,,,,,,,,1155.3595463999955,1156.3109404999996,1,1,1155.3595463999955,1156.3109404999996,1156.3077788999944,None,0.44038739998359233,,,,,,,,,,,,,,,,,,,,,,,,,,,,,,,1101,001,1,1,2022_Jan_31_0946,task_complete_blocked_LC_updated,2021.2.3,244.69381476574637,
,,,X,1,,,,,,,,,,,,,,,,,,,,,,,,,,,,,,,,,,,1,0,2,0,,,,,,,,,,,,,,,,,,,,,,,,,,,,,,,,,,,,,,,,,,,,,,,,,,,,,,,,,,,,,,,,,,,,,,,,,,,,,,,,,,,1156.3518960000074,1157.3053351999843,1,1,1156.3518960000074,1157.3053351999843,1157.2966500000039,None,0.40046480001183227,,,,,,,,,,,,,,,,,,,,,,,,,,,,,,,1101,001,1,1,2022_Jan_31_0946,task_complete_blocked_LC_updated,2021.2.3,244.69381476574637,
,,,O,2,,,,,,,,,,,,,,,,,,,,,,,,,,,,,,,,,,,1,1,3,1,,,,,,,,,,,,,,,,,,,,,,,,,,,,,,,,,,,,,,,,,,,,,,,,,,,,,,,,,,,,,,,,,,,,,,,,,,,,,,,,,,,1157.3513639000012,1158.3048361999972,2,1,1157.3513639000012,1158.3048361999972,1158.3048361999972,1157.3513639000012,0.40455669999937527,,,,,,,,,,,,,,,,,,,,,,,,,,,,,,,1101,001,1,1,2022_Jan_31_0946,task_complete_blocked_LC_updated,2021.2.3,244.69381476574637,
,,,X,1,,,,,,,,,,,,,,,,,,,,,,,,,,,,,,,,,,,2,0,4,0,,,,,,,,,,,,,,,,,,,,,,,,,,,,,,,,,,,,,,,,,,,,,,,,,,,,,,,,,,,,,,,,,,,,,,,,,,,,,,,,,,,1158.3528324000072,1159.308514799981,1,1,1158.3528324000072,1159.308514799981,1159.308514799981,None,0.40477459999965504,,,,,,,,,,,,,,,,,,,,,,,,,,,,,,,1101,001,1,1,2022_Jan_31_0946,task_complete_blocked_LC_updated,2021.2.3,244.69381476574637,
,,,O,2,,,,,,,,,,,,,,,,,,,,,,,,,,,,,,,,,,,2,1,5,1,,,,,,,,,,,,,,,,,,,,,,,,,,,,,,,,,,,,,,,,,,,,,,,,,,,,,,,,,,,,,,,,,,,,,,,,,,,,,,,,,,,1159.3527474000002,1160.3019045999972,2,1,1159.3527474000002,1160.3019045999972,1160.2992923999846,None,0.38412679999601096,,,,,,,,,,,,,,,,,,,,,,,,,,,,,,,1101,001,1,1,2022_Jan_31_0946,task_complete_blocked_LC_updated,2021.2.3,244.69381476574637,
,,,X,1,,,,,,,,,,,,,,,,,,,,,,,,,,,,,,,,,,,3,0,6,0,,,,,,,,,,,,,,,,,,,,,,,,,,,,,,,,,,,,,,,,,,,,,,,,,,,,,,,,,,,,,,,,,,,,,,,,,,,,,,,,,,,1160.353470800008,1161.3051111999957,1,1,1160.353470800008,1161.3051111999957,1161.3019414999872,None,0.45784019998973235,,,,,,,,,,,,,,,,,,,,,,,,,,,,,,,1101,001,1,1,2022_Jan_31_0946,task_complete_blocked_LC_updated,2021.2.3,244.69381476574637,
,,,O,2,,,,,,,,,,,,,,,,,,,,,,,,,,,,,,,,,,,3,1,7,1,,,,,,,,,,,,,,,,,,,,,,,,,,,,,,,,,,,,,,,,,,,,,,,,,,,,,,,,,,,,,,,,,,,,,,,,,,,,,,,,,,,1161.352843200002,1162.305091199989,2,1,1161.352843200002,1162.305091199989,1162.3019501999952,None,0.4961075000173878,,,,,,,,,,,,,,,,,,,,,,,,,,,,,,,1101,001,1,1,2022_Jan_31_0946,task_complete_blocked_LC_updated,2021.2.3,244.69381476574637,
,,,O,2,,,,,,,,,,,,,,,,,,,,,,,,,,,,,,,,,,,4,0,8,1,,,,,,,,,,,,,,,,,,,,,,,,,,,,,,,,,,,,,,,,,,,,,,,,,,,,,,,,,,,,,,,,,,,,,,,,,,,,,,,,,,,1162.3564137000067,1163.307055399986,2,1,1162.3564137000067,1163.307055399986,1163.301437599992,None,0.6154887999873608,,,,,,,,,,,,,,,,,,,,,,,,,,,,,,,1101,001,1,1,2022_Jan_31_0946,task_complete_blocked_LC_updated,2021.2.3,244.69381476574637,
,,,X,1,,,,,,,,,,,,,,,,,,,,,,,,,,,,,,,,,,,4,1,9,0,,,,,,,,,,,,,,,,,,,,,,,,,,,,,,,,,,,,,,,,,,,,,,,,,,,,,,,,,,,,,,,,,,,,,,,,,,,,,,,,,,,1163.3535057999834,1164.3033098999877,None,0,1163.3535057999834,1164.3033098999877,1164.3002789999882,None,,,,,,,,,,,,,,,,,,,,,,,,,,,,,,,,1101,001,1,1,2022_Jan_31_0946,task_complete_blocked_LC_updated,2021.2.3,244.69381476574637,
,,,X,1,,,,,,,,,,,,,,,,,,,,,,,,,,,,,,,,,,,5,0,10,0,,,,,,,,,,,,,,,,,,,,,,,,,,,,,,,,,,,,,,,,,,,,,,,,,,,,,,,,,,,,,,,,,,,,,,,,,,,,,,,,,,,1164.3491777000017,1165.2989213999826,1,1,1164.3491777000017,1165.2989213999826,1165.2955934999918,None,0.5377145000093151,,,,,,,,,,,,,,,,,,,,,,,,,,,,,,,1101,001,1,1,2022_Jan_31_0946,task_complete_blocked_LC_updated,2021.2.3,244.69381476574637,
,,,O,2,,,,,,,,,,,,,,,,,,,,,,,,,,,,,,,,,,,5,1,11,1,,,,,,,,,,,,,,,,,,,,,,,,,,,,,,,,,,,,,,,,,,,,,,,,,,,,,,,,,,,,,,,,,,,,,,,,,,,,,,,,,,,1165.3503051000007,1166.2982267999905,2,1,1165.3503051000007,1166.2982267999905,1166.2982267999905,1165.3503051000007,0.43741250000311993,,,,,,,,,,,,,,,,,,,,,,,,,,,,,,,1101,001,1,1,2022_Jan_31_0946,task_complete_blocked_LC_updated,2021.2.3,244.69381476574637,
,,,X,1,,,,,,,,,,,,,,,,,,,,,,,,,,,,,,,,,,,6,0,12,0,,,,,,,,,,,,,,,,,,,,,,,,,,,,,,,,,,,,,,,,,,,,,,,,,,,,,,,,,,,,,,,,,,,,,,,,,,,,,,,,,,,1166.349863499985,1167.298105599999,1,1,1166.349863499985,1167.298105599999,1167.298105599999,1166.349863499985,0.37016449999646284,,,,,,,,,,,,,,,,,,,,,,,,,,,,,,,1101,001,1,1,2022_Jan_31_0946,task_complete_blocked_LC_updated,2021.2.3,244.69381476574637,
,,,O,2,,,,,,,,,,,,,,,,,,,,,,,,,,,,,,,,,,,6,1,13,1,,,,,,,,,,,,,,,,,,,,,,,,,,,,,,,,,,,,,,,,,,,,,,,,,,,,,,,,,,,,,,,,,,,,,,,,,,,,,,,,,,,1167.3502071999828,1168.3038013000041,2,1,1167.3502071999828,1168.3038013000041,1168.300681099994,1167.3502071999828,0.30288479998125695,,,,,,,,,,,,,,,,,,,,,,,,,,,,,,,1101,001,1,1,2022_Jan_31_0946,task_complete_blocked_LC_updated,2021.2.3,244.69381476574637,
,,,X,1,,,,,,,,,,,,,,,,,,,,,,,,,,,,,,,,,,,7,0,14,0,,,,,,,,,,,,,,,,,,,,,,,,,,,,,,,,,,,,,,,,,,,,,,,,,,,,,,,,,,,,,,,,,,,,,,,,,,,,,,,,,,,1168.3529222999932,1169.3038214999833,1,1,1168.3529222999932,1169.3038214999833,1169.3004438999924,None,0.5010554000036791,,,,,,,,,,,,,,,,,,,,,,,,,,,,,,,1101,001,1,1,2022_Jan_31_0946,task_complete_blocked_LC_updated,2021.2.3,244.69381476574637,
,,,O,2,,,,,,,,,,,,,,,,,,,,,,,,,,,,,,,,,,,7,1,15,1,,,,,,,,,,,,,,,,,,,,,,,,,,,,,,,,,,,,,,,,,,,,,,,,,,,,,,,,,,,,,,,,,,,,,,,,,,,,,,,,,,,1169.3529668999836,1170.3022629999905,2,1,1169.3529668999836,1170.3022629999905,1170.299836899998,None,0.34837510000215843,,,,,,,,,,,,,,,,,,,,,,,,,,,,,,,1101,001,1,1,2022_Jan_31_0946,task_complete_blocked_LC_updated,2021.2.3,244.69381476574637,
,,,X,1,,,,,,,,,,,,,,,,,,,,,,,,,,,,,,,,,,,8,0,16,0,,,,,,,,,,,,,,,,,,,,,,,,,,,,,,,,,,,,,,,,,,,,,,,,,,,,,,,,,,,,,,,,,,,,,,,,,,,,,,,,,,,1170.3524815999845,1171.3063133999822,1,1,1170.3524815999845,1171.3063133999822,1171.2996538000007,None,0.6880359999777284,,,,,,,,,,,,,,,,,,,,,,,,,,,,,,,1101,001,1,1,2022_Jan_31_0946,task_complete_blocked_LC_updated,2021.2.3,244.69381476574637,
,,,O,2,,,,,,,,,,,,,,,,,,,,,,,,,,,,,,,,,,,8,1,17,1,,,,,,,,,,,,,,,,,,,,,,,,,,,,,,,,,,,,,,,,,,,,,,,,,,,,,,,,,,,,,,,,,,,,,,,,,,,,,,,,,,,1171.3529564999917,1172.302810299996,2,1,1171.3529564999917,1172.302810299996,1172.299758100009,None,0.39005940000060946,,,,,,,,,,,,,,,,,,,,,,,,,,,,,,,1101,001,1,1,2022_Jan_31_0946,task_complete_blocked_LC_updated,2021.2.3,244.69381476574637,
,,,O,2,,,,,,,,,,,,,,,,,,,,,,,,,,,,,,,,,,,9,0,18,1,,,,,,,,,,,,,,,,,,,,,,,,,,,,,,,,,,,,,,,,,,,,,,,,,,,,,,,,,,,,,,,,,,,,,,,,,,,,,,,,,,,1172.3563464999897,1173.3084700999898,2,1,1172.3563464999897,1173.3084700999898,1173.2993915999832,None,0.2955491000029724,,,,,,,,,,,,,,,,,,,,,,,,,,,,,,,1101,001,1,1,2022_Jan_31_0946,task_complete_blocked_LC_updated,2021.2.3,244.69381476574637,
,,,X,1,,,,,,,,,,,,,,,,,,,,,,,,,,,,,,,,,,,9,1,19,0,,,,,,,,,,,,,,,,,,,,,,,,,,,,,,,,,,,,,,,,,,,,,,,,,,,,,,,,,,,,,,,,,,,,,,,,,,,,,,,,,,,1173.353510099987,1174.3035313999862,1,1,1173.353510099987,1174.3035313999862,1174.299860500003,None,0.3530923999787774,,,,,,,,,,,,,,,,,,,,,,,,,,,,,,,1101,001,1,1,2022_Jan_31_0946,task_complete_blocked_LC_updated,2021.2.3,244.69381476574637,
,,,O,2,,,,,,,,,,,,,,,,,,,,,,,,,,,,,,,,,,,10,0,20,1,,,,,,,,,,,,,,,,,,,,,,,,,,,,,,,,,,,,,,,,,,,,,,,,,,,,,,,,,,,,,,,,,,,,,,,,,,,,,,,,,,,1174.3532811999903,1175.3075182999892,2,1,1174.3532811999903,1175.3075182999892,1175.3040670999908,None,0.4863900999771431,,,,,,,,,,,,,,,,,,,,,,,,,,,,,,,1101,001,1,1,2022_Jan_31_0946,task_complete_blocked_LC_updated,2021.2.3,244.69381476574637,
,,,X,1,,,,,,,,,,,,,,,,,,,,,,,,,,,,,,,,,,,10,1,21,0,,,,,,,,,,,,,,,,,,,,,,,,,,,,,,,,,,,,,,,,,,,,,,,,,,,,,,,,,,,,,,,,,,,,,,,,,,,,,,,,,,,1175.3513706999947,1176.3024694999913,1,1,1175.3513706999947,1176.3024694999913,1176.298345599993,None,0.5425733999873046,,,,,,,,,,,,,,,,,,,,,,,,,,,,,,,1101,001,1,1,2022_Jan_31_0946,task_complete_blocked_LC_updated,2021.2.3,244.69381476574637,
,,,O,2,,,,,,,,,,,,,,,,,,,,,,,,,,,,,,,,,,,11,0,22,1,,,,,,,,,,,,,,,,,,,,,,,,,,,,,,,,,,,,,,,,,,,,,,,,,,,,,,,,,,,,,,,,,,,,,,,,,,,,,,,,,,,1176.3513679000025,1177.3005305999832,2,1,1176.3513679000025,1177.3005305999832,1177.3005305999832,1176.3513679000025,0.32855190002010204,,,,,,,,,,,,,,,,,,,,,,,,,,,,,,,1101,001,1,1,2022_Jan_31_0946,task_complete_blocked_LC_updated,2021.2.3,244.69381476574637,
,,,X,1,,,,,,,,,,,,,,,,,,,,,,,,,,,,,,,,,,,11,1,23,0,,,,,,,,,,,,,,,,,,,,,,,,,,,,,,,,,,,,,,,,,,,,,,,,,,,,,,,,,,,,,,,,,,,,,,,,,,,,,,,,,,,1177.3532459999842,1178.302035300003,1,1,1177.3532459999842,1178.302035300003,1178.298787399981,None,0.4255583999911323,,,,,,,,,,,,,,,,,,,,,,,,,,,,,,,1101,001,1,1,2022_Jan_31_0946,task_complete_blocked_LC_updated,2021.2.3,244.69381476574637,
,,,X,1,,,,,,,,,,,,,,,,,,,,,,,,,,,,,,,,,,,12,0,24,0,,,,,,,,,,,,,,,,,,,,,,,,,,,,,,,,,,,,,,,,,,,,,,,,,,,,,,,,,,,,,,,,,,,,,,,,,,,,,,,,,,,1178.3538239999907,1179.305422000005,2,0,1178.3538239999907,1179.305422000005,1179.2964737000002,1178.3538239999907,0.35090049999416806,,,,,,,,,,,,,,,,,,,,,,,,,,,,,,,1101,001,1,1,2022_Jan_31_0946,task_complete_blocked_LC_updated,2021.2.3,244.69381476574637,
,,,O,2,,,,,,,,,,,,,,,,,,,,,,,,,,,,,,,,,,,12,1,25,1,,,,,,,,,,,,,,,,,,,,,,,,,,,,,,,,,,,,,,,,,,,,,,,,,,,,,,,,,,,,,,,,,,,,,,,,,,,,,,,,,,,1179.3505908999941,1180.3036613999866,2,1,1179.3505908999941,1180.3036613999866,1180.3000159999938,1179.3505908999941,0.5565662999870256,,,,,,,,,,,,,,,,,,,,,,,,,,,,,,,1101,001,1,1,2022_Jan_31_0946,task_complete_blocked_LC_updated,2021.2.3,244.69381476574637,
,,,X,1,,,,,,,,,,,,,,,,,,,,,,,,,,,,,,,,,,,13,0,26,0,,,,,,,,,,,,,,,,,,,,,,,,,,,,,,,,,,,,,,,,,,,,,,,,,,,,,,,,,,,,,,,,,,,,,,,,,,,,,,,,,,,1180.3532571999822,1181.3049028000096,1,1,1180.3532571999822,1181.3049028000096,1181.3015255999926,None,0.4850095000001602,,,,,,,,,,,,,,,,,,,,,,,,,,,,,,,1101,001,1,1,2022_Jan_31_0946,task_complete_blocked_LC_updated,2021.2.3,244.69381476574637,
,,,O,2,,,,,,,,,,,,,,,,,,,,,,,,,,,,,,,,,,,13,1,27,1,,,,,,,,,,,,,,,,,,,,,,,,,,,,,,,,,,,,,,,,,,,,,,,,,,,,,,,,,,,,,,,,,,,,,,,,,,,,,,,,,,,1181.354294299992,1182.3054312999884,2,1,1181.354294299992,1182.3054312999884,1182.302030299994,None,0.3936217000009492,,,,,,,,,,,,,,,,,,,,,,,,,,,,,,,1101,001,1,1,2022_Jan_31_0946,task_complete_blocked_LC_updated,2021.2.3,244.69381476574637,
,,,X,1,,,,,,,,,,,,,,,,,,,,,,,,,,,,,,,,,,,14,0,28,0,,,,,,,,,,,,,,,,,,,,,,,,,,,,,,,,,,,,,,,,,,,,,,,,,,,,,,,,,,,,,,,,,,,,,,,,,,,,,,,,,,,1182.3529605999938,1183.302179899998,1,1,1182.3529605999938,1183.302179899998,1183.29842929999,None,0.4303391000139527,,,,,,,,,,,,,,,,,,,,,,,,,,,,,,,1101,001,1,1,2022_Jan_31_0946,task_complete_blocked_LC_updated,2021.2.3,244.69381476574637,
,,,O,2,,,,,,,,,,,,,,,,,,,,,,,,,,,,,,,,,,,14,1,29,1,,,,,,,,,,,,,,,,,,,,,,,,,,,,,,,,,,,,,,,,,,,,,,,,,,,,,,,,,,,,,,,,,,,,,,,,,,,,,,,,,,,1183.3500709999935,1184.2996264999965,2,1,1183.3500709999935,1184.2996264999965,1184.2973577000084,1183.3500709999935,0.47280019999016076,,,,,,,,,,,,,,,,,,,,,,,,,,,,,,,1101,001,1,1,2022_Jan_31_0946,task_complete_blocked_LC_updated,2021.2.3,244.69381476574637,
,,,O,2,,,,,,,,,,,,,,,,,,,,,,,,,,,,,,,,,,,15,0,30,1,,,,,,,,,,,,,,,,,,,,,,,,,,,,,,,,,,,,,,,,,,,,,,,,,,,,,,,,,,,,,,,,,,,,,,,,,,,,,,,,,,,1184.3498980999866,1185.2994979000068,2,1,1184.3498980999866,1185.2994979000068,1185.2964553000056,1184.3498980999866,0.5097663000051398,,,,,,,,,,,,,,,,,,,,,,,,,,,,,,,1101,001,1,1,2022_Jan_31_0946,task_complete_blocked_LC_updated,2021.2.3,244.69381476574637,
,,,X,1,,,,,,,,,,,,,,,,,,,,,,,,,,,,,,,,,,,15,1,31,0,,,,,,,,,,,,,,,,,,,,,,,,,,,,,,,,,,,,,,,,,,,,,,,,,,,,,,,,,,,,,,,,,,,,,,,,,,,,,,,,,,,1185.3493948999967,1186.2988807999936,1,1,1185.3493948999967,1186.2988807999936,1186.296747299988,1185.3493948999967,0.5486860000237357,,,,,,,,,,,,,,,,,,,,,,,,,,,,,,,1101,001,1,1,2022_Jan_31_0946,task_complete_blocked_LC_updated,2021.2.3,244.69381476574637,
,,,X,1,,,,,,,,,,,,,,,,,,,,,,,,,,,,,,,,,,,16,0,32,0,,,,,,,,,,,,,,,,,,,,,,,,,,,,,,,,,,,,,,,,,,,,,,,,,,,,,,,,,,,,,,,,,,,,,,,,,,,,,,,,,,,1186.3496759999834,1187.302287700004,1,1,1186.3496759999834,1187.302287700004,1187.2983958999976,1186.3496759999834,0.46100809998461045,,,,,,,,,,,,,,,,,,,,,,,,,,,,,,,1101,001,1,1,2022_Jan_31_0946,task_complete_blocked_LC_updated,2021.2.3,244.69381476574637,
