stimImg,taskType,audTrial,letter,correctResponse,familiarCorrect,sourceCorrect,encode_trials1.thisRepN,encode_trials1.thisTrialN,encode_trials1.thisN,encode_trials1.thisIndex,encode_trials2.thisRepN,encode_trials2.thisTrialN,encode_trials2.thisN,encode_trials2.thisIndex,distractor.thisRepN,distractor.thisTrialN,distractor.thisN,distractor.thisIndex,encode_trials3.thisRepN,encode_trials3.thisTrialN,encode_trials3.thisN,encode_trials3.thisIndex,encode_trials4.thisRepN,encode_trials4.thisTrialN,encode_trials4.thisN,encode_trials4.thisIndex,distractor_2.thisRepN,distractor_2.thisTrialN,distractor_2.thisN,distractor_2.thisIndex,encode_trials5.thisRepN,encode_trials5.thisTrialN,encode_trials5.thisN,encode_trials5.thisIndex,encode_trials6.thisRepN,encode_trials6.thisTrialN,encode_trials6.thisN,encode_trials6.thisIndex,distractor3.thisRepN,distractor3.thisTrialN,distractor3.thisN,distractor3.thisIndex,encode_trials7.thisRepN,encode_trials7.thisTrialN,encode_trials7.thisN,encode_trials7.thisIndex,encode_trials8.thisRepN,encode_trials8.thisTrialN,encode_trials8.thisN,encode_trials8.thisIndex,distractor4.thisRepN,distractor4.thisTrialN,distractor4.thisN,distractor4.thisIndex,retrieval_trials1.thisRepN,retrieval_trials1.thisTrialN,retrieval_trials1.thisN,retrieval_trials1.thisIndex,retrieval_trials2.thisRepN,retrieval_trials2.thisTrialN,retrieval_trials2.thisN,retrieval_trials2.thisIndex,retrieval_trials3.thisRepN,retrieval_trials3.thisTrialN,retrieval_trials3.thisN,retrieval_trials3.thisIndex,retrieval_trials4.thisRepN,retrieval_trials4.thisTrialN,retrieval_trials4.thisN,retrieval_trials4.thisIndex,button_check_1.started,button_check_1.stopped,button_check_resp_1.keys,button_check_resp_1.rt,button_check_resp_1.started,button_check_resp_1.stopped,text_2.started,text_2.stopped,key_resp_3.keys,key_resp_3.rt,key_resp_3.started,key_resp_3.stopped,text_3.started,text_3.stopped,key_resp_4.keys,key_resp_4.rt,key_resp_4.started,key_resp_4.stopped,text_4.started,text_4.stopped,key_resp_5.keys,key_resp_5.rt,key_resp_5.started,key_resp_5.stopped,wait_text.started,wait_text.stopped,scanner_pulse.keys,scanner_pulse.rt,scanner_pulse.started,scanner_pulse.stopped,Trial_cue_onset,instruction.started,instruction.stopped,image_3.started,image_3.stopped,in_.started,in_.stopped,source_cue.started,source_cue.stopped,fixation.started,fixation.stopped,Response_cue_onset,rating.started,rating.stopped,text.started,text.stopped,rating_resp.keys,rating_resp.rt,rating_resp.started,rating_resp.stopped,text_16.started,text_16.stopped,instruc.started,instruc.stopped,distractor_task.started,distractor_task.stopped,distractor_task_resp.keys,distractor_task_resp.corr,distractor_task_resp.started,distractor_task_resp.stopped,flicker.started,flicker.stopped,distractor_task_resp.rt,end_screen.started,end_screen.stopped,spacebar_press.keys,spacebar_press.rt,spacebar_press.started,spacebar_press.stopped,one_moment.started,one_moment.stopped,Trial_familiarity_onset,item_rec.started,item_rec.stopped,image_4.started,image_4.stopped,item_rec_guide.started,item_rec_guide.stopped,item_rec_resp.keys,item_rec_resp.corr,item_rec_resp.rt,item_rec_resp.started,item_rec_resp.stopped,Trial_source_onset,source_rec.started,source_rec.stopped,source_rec_resp.keys,source_rec_resp.corr,source_rec_resp.rt,source_rec_resp.started,source_rec_resp.stopped,text_14.started,text_14.stopped,participant,session,group,university,date,expName,psychopyVersion,frameRate,
,,,,,,,,,,,,,,,,,,,,,,,,,,,,,,,,,,,,,,,,,,,,,,,,,,,,,,,,,,,,,,,,,,,,,,,12.520453399978578,None,1,1064.2025840999559,12.520453399978578,None,,,,,,,,,,,,,,,,,,,,,,,,,,,,,,,,,,,,,,,,,,,,,,,,,,,,,,,,,,,,,,,,,,,,,,,,,,,,,,,,,,,,,,,,1102,001,2,1,2022_Feb_10_1602,task_complete_blocked_LC_updated,2021.2.3,237.7793307522167,
,,,,,,,,,,,,,,,,,,,,,,,,,,,,,,,,,,,,,,,,,,,,,,,,,,,,,,,,,,,,,,,,,,,,,,,,,,,,,1076.7305900999345,None,2,0.47626749984920025,1076.7305900999345,None,,,,,,,,,,,,,,,,,,,,,,,,,,,,,,,,,,,,,,,,,,,,,,,,,,,,,,,,,,,,,,,,,,,,,,,,,,,,,,,,,,1102,001,2,1,2022_Feb_10_1602,task_complete_blocked_LC_updated,2021.2.3,237.7793307522167,
,,,,,,,,,,,,,,,,,,,,,,,,,,,,,,,,,,,,,,,,,,,,,,,,,,,,,,,,,,,,,,,,,,,,,,,,,,,,,,,,,,,1077.2132548999507,None,3,1.6574955000542104,1077.2132548999507,None,,,,,,,,,,,,,,,,,,,,,,,,,,,,,,,,,,,,,,,,,,,,,,,,,,,,,,,,,,,,,,,,,,,,,,,,,,,,1102,001,2,1,2022_Feb_10_1602,task_complete_blocked_LC_updated,2021.2.3,237.7793307522167,
,,,,,,,,,,,,,,,,,,,,,,,,,,,,,,,,,,,,,,,,,,,,,,,,,,,,,,,,,,,,,,,,,,,,,,,,,,,,,,,,,,,,,,,,,1078.881975499913,None,4,110.04479250009172,1078.881975499913,None,,,,,,,,,,,,,,,,,,,,,,,,,,,,,,,,,,,,,,,,,,,,,,,,,,,,,,,,,,,,,,,,,,,,,,1102,001,2,1,2022_Feb_10_1602,task_complete_blocked_LC_updated,2021.2.3,237.7793307522167,
,,,,,,,,,,,,,,,,,,,,,,,,,,,,,,,,,,,,,,,,,,,,,,,,,,,,,,,,,,,,,,,,,,,,,,,,,,,,,,,,,,,,,,,,,,,,,,,1188.9332208000124,None,5,82.02073840005323,1188.9332208000124,None,,,,,,,,,,,,,,,,,,,,,,,,,,,,,,,,,,,,,,,,,,,,,,,,,,,,,,,,,,,,,,,,1102,001,2,1,2022_Feb_10_1602,task_complete_blocked_LC_updated,2021.2.3,237.7793307522167,
stimulus_images/AARMCHA25.jpg,SPACE,0,,,,,0,0,0,0,,,,,,,,,,,,,,,,,,,,,,,,,,,,,,,,,,,,,,,,,,,,,,,,,,,,,,,,,,,,,,,,,,,,,,,,,,,,,,,,,,,,,,,,,,,3.400025889277458e-06,1270.985065799905,1272.983366200002,1270.985065799905,1272.983366200002,1271.9791540999431,1272.9811507998966,1271.9791540999431,1272.9811507998966,1272.9770843000151,None,5.989392200019211,1276.9659986998886,None,1276.9659986998886,None,3,2.777100100181997,1276.9659986998886,None,1282.966000800021,None,,,,,,,,,,,,,,,,,,,,,,,,,,,,,,,,,,,,,,,,,,1102,001,2,1,2022_Feb_10_1602,task_complete_blocked_LC_updated,2021.2.3,237.7793307522167,
stimulus_images/Agiftbag20.jpg,SPACE,1,,,,,0,1,1,7,,,,,,,,,,,,,,,,,,,,,,,,,,,,,,,,,,,,,,,,,,,,,,,,,,,,,,,,,,,,,,,,,,,,,,,,,,,,,,,,,,,,,,,,,,,13.991182300029323,1284.9706154000014,1286.9702322999947,1284.9706154000014,1286.9702322999947,1285.965741199907,1286.9702322999947,1285.965741199907,1286.9702322999947,1286.9702322999947,None,19.994259000057355,1290.972536199959,None,1290.972536199959,None,3,1.4275120000820607,1290.972536199959,None,1296.9760262998752,None,,,,,,,,,,,,,,,,,,,,,,,,,,,,,,,,,,,,,,,,,,1102,001,2,1,2022_Feb_10_1602,task_complete_blocked_LC_updated,2021.2.3,237.7793307522167,
stimulus_images/ACAROSLI2.jpg,SPACE,0,,,,,0,2,2,4,,,,,,,,,,,,,,,,,,,,,,,,,,,,,,,,,,,,,,,,,,,,,,,,,,,,,,,,,,,,,,,,,,,,,,,,,,,,,,,,,,,,,,,,,,,27.004040100146085,1297.9834380999673,1299.991122199921,1297.9834380999673,1299.991122199921,1298.976185800042,1299.9781972998753,1298.976185800042,1299.9781972998753,1299.9781972998753,None,33.00346409995109,1303.9800577999558,None,1303.9800577999558,None,2,1.790702700149268,1303.9800577999558,None,1309.9804489999078,None,,,,,,,,,,,,,,,,,,,,,,,,,,,,,,,,,,,,,,,,,,1102,001,2,1,2022_Feb_10_1602,task_complete_blocked_LC_updated,2021.2.3,237.7793307522167,
stimulus_images/Aboxofchocola.jpg,SPACE,0,,,,,0,3,3,3,,,,,,,,,,,,,,,,,,,,,,,,,,,,,,,,,,,,,,,,,,,,,,,,,,,,,,,,,,,,,,,,,,,,,,,,,,,,,,,,,,,,,,,,,,,40.00755530013703,1310.9876961000264,1312.988640599884,1310.9876961000264,1312.988640599884,1311.9830706999637,1312.9858232999686,1311.9830706999637,1312.9858232999686,1312.9810434998944,None,46.007789799943566,1316.9902866999619,None,1316.9902866999619,None,4,0.7910115998238325,1316.9902866999619,None,1322.9890431000385,None,,,,,,,,,,,,,,,,,,,,,,,,,,,,,,,,,,,,,,,,,,1102,001,2,1,2022_Feb_10_1602,task_complete_blocked_LC_updated,2021.2.3,237.7793307522167,
stimulus_images/Aeasteregg14.jpg,SPACE,0,,,,,0,4,4,6,,,,,,,,,,,,,,,,,,,,,,,,,,,,,,,,,,,,,,,,,,,,,,,,,,,,,,,,,,,,,,,,,,,,,,,,,,,,,,,,,,,,,,,,,,,53.015962900128216,1323.9957311998587,1325.9965500999242,1323.9957311998587,1325.9965500999242,1324.9869545998517,1325.989044799935,1324.9869545998517,1325.989044799935,1325.989044799935,None,59.01618449995294,1329.9926578998566,None,1329.9926578998566,None,2,1.162286200094968,1329.9926578998566,None,1335.9973500999622,None,,,,,,,,,,,,,,,,,,,,,,,,,,,,,,,,,,,,,,,,,,1102,001,2,1,2022_Feb_10_1602,task_complete_blocked_LC_updated,2021.2.3,237.7793307522167,
stimulus_images/AICESKAT8.jpg,SPACE,0,,,,,0,5,5,8,,,,,,,,,,,,,,,,,,,,,,,,,,,,,,,,,,,,,,,,,,,,,,,,,,,,,,,,,,,,,,,,,,,,,,,,,,,,,,,,,,,,,,,,,,,68.02442050003447,1339.0038982999977,1341.0054713999853,1339.0038982999977,1341.0054713999853,1340.0010528999846,1341.0021536999848,1340.0010528999846,1341.0021536999848,1340.9985044000205,None,74.02456420008093,1345.0014824999962,None,1345.0014824999962,None,3,1.6254902000073344,1345.0014824999962,None,1351.006114799995,None,,,,,,,,,,,,,,,,,,,,,,,,,,,,,,,,,,,,,,,,,,1102,001,2,1,2022_Feb_10_1602,task_complete_blocked_LC_updated,2021.2.3,237.7793307522167,
stimulus_images/ABALLYAR4.jpg,SPACE,0,,,,,0,6,6,1,,,,,,,,,,,,,,,,,,,,,,,,,,,,,,,,,,,,,,,,,,,,,,,,,,,,,,,,,,,,,,,,,,,,,,,,,,,,,,,,,,,,,,,,,,,83.03302179998718,1354.0127335998695,1356.0141353998333,1354.0127335998695,1356.0141353998333,1355.007935399888,1356.011159799993,1355.007935399888,1356.011159799993,1356.007410199847,None,89.03304300014861,1360.0096519000363,None,1360.0096519000363,None,4,0.9635946999769658,1360.0096519000363,None,1366.0111044000369,None,,,,,,,,,,,,,,,,,,,,,,,,,,,,,,,,,,,,,,,,,,1102,001,2,1,2022_Feb_10_1602,task_complete_blocked_LC_updated,2021.2.3,237.7793307522167,
stimulus_images/ABILLTABL.jpg,SPACE,1,,,,,0,7,7,2,,,,,,,,,,,,,,,,,,,,,,,,,,,,,,,,,,,,,,,,,,,,,,,,,,,,,,,,,,,,,,,,,,,,,,,,,,,,,,,,,,,,,,,,,,,97.03746480005793,1368.0178089998662,1370.0237397998571,1368.0178089998662,1370.0237397998571,1369.009516699938,1370.0086385998875,1369.009516699938,1370.0086385998875,1370.0086385998875,None,103.0329986999277,1374.0094885998406,None,1374.0094885998406,None,4,0.6514419000595808,1374.0094885998406,None,1380.0094577998389,None,,,,,,,,,,,,,,,,,,,,,,,,,,,,,,,,,,,,,,,,,,1102,001,2,1,2022_Feb_10_1602,task_complete_blocked_LC_updated,2021.2.3,237.7793307522167,
stimulus_images/Acomputerdriv.jpg,SPACE,0,,,,,0,8,8,5,,,,,,,,,,,,,,,,,,,,,,,,,,,,,,,,,,,,,,,,,,,,,,,,,,,,,,,,,,,,,,,,,,,,,,,,,,,,,,,,,,,,,,,,,,,112.03717379993759,1383.0168440998532,1385.017900499981,1383.0168440998532,1385.017900499981,1384.013599399943,1385.0148324999027,1384.013599399943,1385.0148324999027,1385.010986899957,None,118.03547540004365,1389.0120480998885,None,1389.0120480998885,None,1,1.3217100000474602,1389.0120480998885,None,1395.0227262999397,None,,,,,,,,,,,,,,,,,,,,,,,,,,,,,,,,,,,,,,,,,,1102,001,2,1,2022_Feb_10_1602,task_complete_blocked_LC_updated,2021.2.3,237.7793307522167,
stimulus_images/AOTOSCOP5.jpg,SPACE,0,,,,,0,9,9,9,,,,,,,,,,,,,,,,,,,,,,,,,,,,,,,,,,,,,,,,,,,,,,,,,,,,,,,,,,,,,,,,,,,,,,,,,,,,,,,,,,,,,,,,,,,127.04863009997644,1398.027174799936,1400.028198899934,1398.027174799936,1400.028198899934,1399.0278173000552,1400.028198899934,1399.0278173000552,1400.028198899934,1400.0193086999934,None,133.04683020012453,1404.0268421999644,None,1404.0268421999644,None,2,0.4445189000107348,1404.0268421999644,None,1410.0299501998816,None,,,,,,,,,,,,,,,,,,,,,,,,,,,,,,,,,,,,,,,,,,1102,001,2,1,2022_Feb_10_1602,task_complete_blocked_LC_updated,2021.2.3,237.7793307522167,
stimulus_images/Abackpack11.jpg,SPACE,1,,,,,,,,,0,0,0,7,,,,,,,,,,,,,,,,,,,,,,,,,,,,,,,,,,,,,,,,,,,,,,,,,,,,,,,,,,,,,,,,,,,,,,,,,,,,,,,,,,,,,,,141.06047399993986,1412.039752899902,1414.0400194998365,1412.039752899902,1414.0400194998365,1413.0406227000058,1414.0400194998365,1413.0406227000058,1414.0400194998365,1414.0370828998275,None,147.05708519998007,1418.0338030999992,None,1418.0338030999992,None,4,1.73626170004718,1418.0338030999992,None,1424.0366350000259,None,,,,,,,,,,,,,,,,,,,,,,,,,,,,,,,,,,,,,,,,,,1102,001,2,1,2022_Feb_10_1602,task_complete_blocked_LC_updated,2021.2.3,237.7793307522167,
stimulus_images/Atelescope2.jpg,SPACE,1,,,,,,,,,0,1,1,1,,,,,,,,,,,,,,,,,,,,,,,,,,,,,,,,,,,,,,,,,,,,,,,,,,,,,,,,,,,,,,,,,,,,,,,,,,,,,,,,,,,,,,,155.06259139999747,1426.0475087000523,1428.04740699986,1426.0475087000523,1428.04740699986,1427.0423596999608,1428.0442510999274,1427.0423596999608,1428.0442510999274,1428.0442510999274,None,161.06524959998205,1432.0422977998387,None,1432.0422977998387,None,2,1.0437235001008958,1432.0422977998387,None,1438.0466445998754,None,,,,,,,,,,,,,,,,,,,,,,,,,,,,,,,,,,,,,,,,,,1102,001,2,1,2022_Feb_10_1602,task_complete_blocked_LC_updated,2021.2.3,237.7793307522167,
stimulus_images/corkscrew02.jpg,SPACE,0,,,,,,,,,0,2,2,2,,,,,,,,,,,,,,,,,,,,,,,,,,,,,,,,,,,,,,,,,,,,,,,,,,,,,,,,,,,,,,,,,,,,,,,,,,,,,,,,,,,,,,,169.0718227000907,1440.0501249998342,1442.0510396000464,1440.0501249998342,1442.0510396000464,1441.0474212998524,1442.048106199829,1441.0474212998524,1442.048106199829,1442.048106199829,None,175.0743031001184,1446.0515671998728,None,1446.0515671998728,None,3,0.7553619998507202,1446.0515671998728,None,1452.0528788999654,None,,,,,,,,,,,,,,,,,,,,,,,,,,,,,,,,,,,,,,,,,,1102,001,2,1,2022_Feb_10_1602,task_complete_blocked_LC_updated,2021.2.3,237.7793307522167,
stimulus_images/Abasketofbrea.jpg,SPACE,0,,,,,,,,,0,3,3,8,,,,,,,,,,,,,,,,,,,,,,,,,,,,,,,,,,,,,,,,,,,,,,,,,,,,,,,,,,,,,,,,,,,,,,,,,,,,,,,,,,,,,,,183.07943490007892,1454.058549999958,1456.058530600043,1454.058549999958,1456.058530600043,1455.052729499992,1456.0520945999306,1455.052729499992,1456.0520945999306,1456.0520945999306,None,189.07956570014358,1460.0559127999004,None,1460.0559127999004,None,2,0.8233543999958783,1460.0559127999004,None,1466.0576408000197,None,,,,,,,,,,,,,,,,,,,,,,,,,,,,,,,,,,,,,,,,,,1102,001,2,1,2022_Feb_10_1602,task_complete_blocked_LC_updated,2021.2.3,237.7793307522167,
stimulus_images/Aboots56.jpg,SPACE,0,,,,,,,,,0,4,4,9,,,,,,,,,,,,,,,,,,,,,,,,,,,,,,,,,,,,,,,,,,,,,,,,,,,,,,,,,,,,,,,,,,,,,,,,,,,,,,,,,,,,,,,196.0834059000481,1467.0693081000354,1469.081126099918,1467.0693081000354,1469.081126099918,1468.0699148999993,1469.081126099918,1468.0699148999993,1469.081126099918,1469.0767785999924,None,202.086462700041,1473.0628738000523,None,1473.0628738000523,None,4,1.594061499927193,1473.0628738000523,None,1479.067732800031,None,,,,,,,,,,,,,,,,,,,,,,,,,,,,,,,,,,,,,,,,,,1102,001,2,1,2022_Feb_10_1602,task_complete_blocked_LC_updated,2021.2.3,237.7793307522167,
stimulus_images/Aroadsignin15.jpg,SPACE,1,,,,,,,,,0,5,5,0,,,,,,,,,,,,,,,,,,,,,,,,,,,,,,,,,,,,,,,,,,,,,,,,,,,,,,,,,,,,,,,,,,,,,,,,,,,,,,,,,,,,,,,211.09227670007385,1482.0732126999646,1484.0715615998488,1482.0732126999646,1484.0715615998488,1483.0676782999653,1484.0683436999097,1483.0676782999653,1484.0683436999097,1484.0683436999097,None,217.09228710015304,1488.0699394999538,None,1488.0699394999538,None,2,0.4438426000997424,1488.0699394999538,None,1494.0712732998654,None,,,,,,,,,,,,,,,,,,,,,,,,,,,,,,,,,,,,,,,,,,1102,001,2,1,2022_Feb_10_1602,task_complete_blocked_LC_updated,2021.2.3,237.7793307522167,
stimulus_images/wetsuit1.jpg,SPACE,0,,,,,,,,,0,6,6,3,,,,,,,,,,,,,,,,,,,,,,,,,,,,,,,,,,,,,,,,,,,,,,,,,,,,,,,,,,,,,,,,,,,,,,,,,,,,,,,,,,,,,,,225.09626329992898,1496.076936099911,1498.0773230998311,1496.076936099911,1498.0773230998311,1497.073157100007,1498.0773230998311,1497.073157100007,1498.0773230998311,1498.0740606999025,None,231.09885750012472,1502.0800435999408,None,1502.0800435999408,None,2,1.8204586999490857,1502.0800435999408,None,1508.0789002999663,None,,,,,,,,,,,,,,,,,,,,,,,,,,,,,,,,,,,,,,,,,,1102,001,2,1,2022_Feb_10_1602,task_complete_blocked_LC_updated,2021.2.3,237.7793307522167,
stimulus_images/AALTIRE2.jpg,SPACE,0,,,,,,,,,0,7,7,5,,,,,,,,,,,,,,,,,,,,,,,,,,,,,,,,,,,,,,,,,,,,,,,,,,,,,,,,,,,,,,,,,,,,,,,,,,,,,,,,,,,,,,,240.1046808999963,1511.0847779000178,1513.083843600005,1511.0847779000178,1513.083843600005,1512.0757003999315,1513.0803771000355,1512.0757003999315,1513.0803771000355,1513.0803771000355,None,246.10529109998606,1517.0821348000318,None,1517.0821348000318,None,3,1.4798628999851644,1517.0821348000318,None,1523.0880258998368,None,,,,,,,,,,,,,,,,,,,,,,,,,,,,,,,,,,,,,,,,,,1102,001,2,1,2022_Feb_10_1602,task_complete_blocked_LC_updated,2021.2.3,237.7793307522167,
stimulus_images/A25thdec3.jpg,SPACE,0,,,,,,,,,0,8,8,4,,,,,,,,,,,,,,,,,,,,,,,,,,,,,,,,,,,,,,,,,,,,,,,,,,,,,,,,,,,,,,,,,,,,,,,,,,,,,,,,,,,,,,,254.1126725000795,1525.097107999958,1527.1000069000293,1525.097107999958,1527.1000069000293,1526.0865936998744,1527.0863546000328,1526.0865936998744,1527.0863546000328,1527.0863546000328,None,260.1135033001192,1531.090160700027,None,1531.090160700027,None,1,0.8235563000198454,1531.090160700027,None,1537.0940549999941,None,,,,,,,,,,,,,,,,,,,,,,,,,,,,,,,,,,,,,,,,,,1102,001,2,1,2022_Feb_10_1602,task_complete_blocked_LC_updated,2021.2.3,237.7793307522167,
stimulus_images/Aantiquerota7.jpg,SPACE,0,,,,,,,,,0,9,9,6,,,,,,,,,,,,,,,,,,,,,,,,,,,,,,,,,,,,,,,,,,,,,,,,,,,,,,,,,,,,,,,,,,,,,,,,,,,,,,,,,,,,,,,267.1215721000917,1538.1107721000444,1540.1133419000544,1538.1107721000444,1540.1133419000544,1539.1070834998973,1540.105271199951,1539.1070834998973,1540.105271199951,1540.105271199951,None,273.1254368999507,1544.102611299837,None,1544.102611299837,None,3,0.8267091999296099,1544.102611299837,None,1550.1043259999715,None,,,,,,,,,,,,,,,,,,,,,,,,,,,,,,,,,,,,,,,,,,1102,001,2,1,2022_Feb_10_1602,task_complete_blocked_LC_updated,2021.2.3,237.7793307522167,
,,,X,1,,,,,,,,,,,0,0,0,0,,,,,,,,,,,,,,,,,,,,,,,,,,,,,,,,,,,,,,,,,,,,,,,,,,,,,,,,,,,,,,,,,,,,,,,,,,,,,,,,,,,,,,,,,,,,,,,,,,,,,,,,,1551.1072549999226,None,1554.1163472000044,1555.0686371999327,None,0,1554.1163472000044,1555.0686371999327,1555.0663625998423,None,,,,,,,,,,,,,,,,,,,,,,,,,,,,,,,,1102,001,2,1,2022_Feb_10_1602,task_complete_blocked_LC_updated,2021.2.3,237.7793307522167,
,,,O,2,,,,,,,,,,,0,1,1,1,,,,,,,,,,,,,,,,,,,,,,,,,,,,,,,,,,,,,,,,,,,,,,,,,,,,,,,,,,,,,,,,,,,,,,,,,,,,,,,,,,,,,,,,,,,,,,,,,,,,,,,,,,,1555.1119831998367,1556.06791480002,1,0,1555.1119831998367,1556.06791480002,1556.0650307999458,None,0.04213099996559322,,,,,,,,,,,,,,,,,,,,,,,,,,,,,,,1102,001,2,1,2022_Feb_10_1602,task_complete_blocked_LC_updated,2021.2.3,237.7793307522167,
,,,X,1,,,,,,,,,,,1,0,2,0,,,,,,,,,,,,,,,,,,,,,,,,,,,,,,,,,,,,,,,,,,,,,,,,,,,,,,,,,,,,,,,,,,,,,,,,,,,,,,,,,,,,,,,,,,,,,,,,,,,,,,,,,,,1556.1104786000215,1557.0637833999936,1,1,1556.1104786000215,1557.0637833999936,1557.0605410998687,None,0.6567576001398265,,,,,,,,,,,,,,,,,,,,,,,,,,,,,,,1102,001,2,1,2022_Feb_10_1602,task_complete_blocked_LC_updated,2021.2.3,237.7793307522167,
,,,O,2,,,,,,,,,,,1,1,3,1,,,,,,,,,,,,,,,,,,,,,,,,,,,,,,,,,,,,,,,,,,,,,,,,,,,,,,,,,,,,,,,,,,,,,,,,,,,,,,,,,,,,,,,,,,,,,,,,,,,,,,,,,,,1557.1111625998747,1558.061357999919,2,1,1557.1111625998747,1558.061357999919,1558.0579649999272,None,0.2837402999866754,,,,,,,,,,,,,,,,,,,,,,,,,,,,,,,1102,001,2,1,2022_Feb_10_1602,task_complete_blocked_LC_updated,2021.2.3,237.7793307522167,
,,,X,1,,,,,,,,,,,2,0,4,0,,,,,,,,,,,,,,,,,,,,,,,,,,,,,,,,,,,,,,,,,,,,,,,,,,,,,,,,,,,,,,,,,,,,,,,,,,,,,,,,,,,,,,,,,,,,,,,,,,,,,,,,,,,1558.1112850999925,1559.0640257999767,1,1,1558.1112850999925,1559.0640257999767,1559.0604796998668,None,0.27379810018464923,,,,,,,,,,,,,,,,,,,,,,,,,,,,,,,1102,001,2,1,2022_Feb_10_1602,task_complete_blocked_LC_updated,2021.2.3,237.7793307522167,
,,,O,2,,,,,,,,,,,2,1,5,1,,,,,,,,,,,,,,,,,,,,,,,,,,,,,,,,,,,,,,,,,,,,,,,,,,,,,,,,,,,,,,,,,,,,,,,,,,,,,,,,,,,,,,,,,,,,,,,,,,,,,,,,,,,1559.110872699879,1560.0637383998837,2,1,1559.110872699879,1560.0637383998837,1560.0606978000142,None,0.252183300210163,,,,,,,,,,,,,,,,,,,,,,,,,,,,,,,1102,001,2,1,2022_Feb_10_1602,task_complete_blocked_LC_updated,2021.2.3,237.7793307522167,
,,,X,1,,,,,,,,,,,3,0,6,0,,,,,,,,,,,,,,,,,,,,,,,,,,,,,,,,,,,,,,,,,,,,,,,,,,,,,,,,,,,,,,,,,,,,,,,,,,,,,,,,,,,,,,,,,,,,,,,,,,,,,,,,,,,1560.110857799882,1561.0628615999594,1,1,1560.110857799882,1561.0628615999594,1561.0598165998235,None,0.4092981999274343,,,,,,,,,,,,,,,,,,,,,,,,,,,,,,,1102,001,2,1,2022_Feb_10_1602,task_complete_blocked_LC_updated,2021.2.3,237.7793307522167,
,,,O,2,,,,,,,,,,,3,1,7,1,,,,,,,,,,,,,,,,,,,,,,,,,,,,,,,,,,,,,,,,,,,,,,,,,,,,,,,,,,,,,,,,,,,,,,,,,,,,,,,,,,,,,,,,,,,,,,,,,,,,,,,,,,,1561.1103542998899,1562.0634206999093,2,1,1561.1103542998899,1562.0634206999093,1562.059560299851,None,0.23887200001627207,,,,,,,,,,,,,,,,,,,,,,,,,,,,,,,1102,001,2,1,2022_Feb_10_1602,task_complete_blocked_LC_updated,2021.2.3,237.7793307522167,
,,,X,1,,,,,,,,,,,4,0,8,0,,,,,,,,,,,,,,,,,,,,,,,,,,,,,,,,,,,,,,,,,,,,,,,,,,,,,,,,,,,,,,,,,,,,,,,,,,,,,,,,,,,,,,,,,,,,,,,,,,,,,,,,,,,1562.1106895999983,1563.0622325998265,1,1,1562.1106895999983,1563.0622325998265,1563.0583246999886,None,0.26049640006385744,,,,,,,,,,,,,,,,,,,,,,,,,,,,,,,1102,001,2,1,2022_Feb_10_1602,task_complete_blocked_LC_updated,2021.2.3,237.7793307522167,
,,,O,2,,,,,,,,,,,4,1,9,1,,,,,,,,,,,,,,,,,,,,,,,,,,,,,,,,,,,,,,,,,,,,,,,,,,,,,,,,,,,,,,,,,,,,,,,,,,,,,,,,,,,,,,,,,,,,,,,,,,,,,,,,,,,1563.1116763998289,1564.0651066999417,2,1,1563.1116763998289,1564.0651066999417,1564.060562999919,None,0.1884285998530686,,,,,,,,,,,,,,,,,,,,,,,,,,,,,,,1102,001,2,1,2022_Feb_10_1602,task_complete_blocked_LC_updated,2021.2.3,237.7793307522167,
,,,O,2,,,,,,,,,,,5,0,10,1,,,,,,,,,,,,,,,,,,,,,,,,,,,,,,,,,,,,,,,,,,,,,,,,,,,,,,,,,,,,,,,,,,,,,,,,,,,,,,,,,,,,,,,,,,,,,,,,,,,,,,,,,,,1564.1098792999983,1565.0592580998782,2,1,1564.1098792999983,1565.0592580998782,1565.0566453000065,None,0.5232195002026856,,,,,,,,,,,,,,,,,,,,,,,,,,,,,,,1102,001,2,1,2022_Feb_10_1602,task_complete_blocked_LC_updated,2021.2.3,237.7793307522167,
,,,X,1,,,,,,,,,,,5,1,11,0,,,,,,,,,,,,,,,,,,,,,,,,,,,,,,,,,,,,,,,,,,,,,,,,,,,,,,,,,,,,,,,,,,,,,,,,,,,,,,,,,,,,,,,,,,,,,,,,,,,,,,,,,,,1565.1114375998732,1566.0645522000268,1,1,1565.1114375998732,1566.0645522000268,1566.0604632999748,1565.1114375998732,0.45634550019167364,,,,,,,,,,,,,,,,,,,,,,,,,,,,,,,1102,001,2,1,2022_Feb_10_1602,task_complete_blocked_LC_updated,2021.2.3,237.7793307522167,
,,,X,1,,,,,,,,,,,6,0,12,0,,,,,,,,,,,,,,,,,,,,,,,,,,,,,,,,,,,,,,,,,,,,,,,,,,,,,,,,,,,,,,,,,,,,,,,,,,,,,,,,,,,,,,,,,,,,,,,,,,,,,,,,,,,1566.1097505998332,1567.0620404998772,1,1,1566.1097505998332,1567.0620404998772,1567.0543909999542,None,0.5108127000275999,,,,,,,,,,,,,,,,,,,,,,,,,,,,,,,1102,001,2,1,2022_Feb_10_1602,task_complete_blocked_LC_updated,2021.2.3,237.7793307522167,
,,,O,2,,,,,,,,,,,6,1,13,1,,,,,,,,,,,,,,,,,,,,,,,,,,,,,,,,,,,,,,,,,,,,,,,,,,,,,,,,,,,,,,,,,,,,,,,,,,,,,,,,,,,,,,,,,,,,,,,,,,,,,,,,,,,1567.1080767000094,1568.059772199951,2,1,1567.1080767000094,1568.059772199951,1568.0552884999197,1567.1080767000094,0.4099615002050996,,,,,,,,,,,,,,,,,,,,,,,,,,,,,,,1102,001,2,1,2022_Feb_10_1602,task_complete_blocked_LC_updated,2021.2.3,237.7793307522167,
,,,O,2,,,,,,,,,,,7,0,14,1,,,,,,,,,,,,,,,,,,,,,,,,,,,,,,,,,,,,,,,,,,,,,,,,,,,,,,,,,,,,,,,,,,,,,,,,,,,,,,,,,,,,,,,,,,,,,,,,,,,,,,,,,,,1568.1157678000163,1569.0665665999986,2,1,1568.1157678000163,1569.0665665999986,1569.0576462999452,None,0.44144830014556646,,,,,,,,,,,,,,,,,,,,,,,,,,,,,,,1102,001,2,1,2022_Feb_10_1602,task_complete_blocked_LC_updated,2021.2.3,237.7793307522167,
,,,X,1,,,,,,,,,,,7,1,15,0,,,,,,,,,,,,,,,,,,,,,,,,,,,,,,,,,,,,,,,,,,,,,,,,,,,,,,,,,,,,,,,,,,,,,,,,,,,,,,,,,,,,,,,,,,,,,,,,,,,,,,,,,,,1569.11094100005,1570.0617599999532,1,1,1569.11094100005,1570.0617599999532,1570.0593456998467,None,0.382691300008446,,,,,,,,,,,,,,,,,,,,,,,,,,,,,,,1102,001,2,1,2022_Feb_10_1602,task_complete_blocked_LC_updated,2021.2.3,237.7793307522167,
,,,X,1,,,,,,,,,,,8,0,16,0,,,,,,,,,,,,,,,,,,,,,,,,,,,,,,,,,,,,,,,,,,,,,,,,,,,,,,,,,,,,,,,,,,,,,,,,,,,,,,,,,,,,,,,,,,,,,,,,,,,,,,,,,,,1570.1092494998593,1571.0616156999022,1,1,1570.1092494998593,1571.0616156999022,1571.0587042998523,None,0.3558792001567781,,,,,,,,,,,,,,,,,,,,,,,,,,,,,,,1102,001,2,1,2022_Feb_10_1602,task_complete_blocked_LC_updated,2021.2.3,237.7793307522167,
,,,O,2,,,,,,,,,,,8,1,17,1,,,,,,,,,,,,,,,,,,,,,,,,,,,,,,,,,,,,,,,,,,,,,,,,,,,,,,,,,,,,,,,,,,,,,,,,,,,,,,,,,,,,,,,,,,,,,,,,,,,,,,,,,,,1571.1108112998772,1572.0689302999526,2,1,1571.1108112998772,1572.0689302999526,1572.0603044999298,None,0.33624519989825785,,,,,,,,,,,,,,,,,,,,,,,,,,,,,,,1102,001,2,1,2022_Feb_10_1602,task_complete_blocked_LC_updated,2021.2.3,237.7793307522167,
,,,X,1,,,,,,,,,,,9,0,18,0,,,,,,,,,,,,,,,,,,,,,,,,,,,,,,,,,,,,,,,,,,,,,,,,,,,,,,,,,,,,,,,,,,,,,,,,,,,,,,,,,,,,,,,,,,,,,,,,,,,,,,,,,,,1572.110899399966,1573.0643635999877,2,0,1572.110899399966,1573.0643635999877,1573.0616372998338,None,0.20505090011283755,,,,,,,,,,,,,,,,,,,,,,,,,,,,,,,1102,001,2,1,2022_Feb_10_1602,task_complete_blocked_LC_updated,2021.2.3,237.7793307522167,
,,,O,2,,,,,,,,,,,9,1,19,1,,,,,,,,,,,,,,,,,,,,,,,,,,,,,,,,,,,,,,,,,,,,,,,,,,,,,,,,,,,,,,,,,,,,,,,,,,,,,,,,,,,,,,,,,,,,,,,,,,,,,,,,,,,1573.1102305999957,1574.0606064000167,2,1,1573.1102305999957,1574.0606064000167,1574.057353500044,None,0.5568413999862969,,,,,,,,,,,,,,,,,,,,,,,,,,,,,,,1102,001,2,1,2022_Feb_10_1602,task_complete_blocked_LC_updated,2021.2.3,237.7793307522167,
,,,O,2,,,,,,,,,,,10,0,20,1,,,,,,,,,,,,,,,,,,,,,,,,,,,,,,,,,,,,,,,,,,,,,,,,,,,,,,,,,,,,,,,,,,,,,,,,,,,,,,,,,,,,,,,,,,,,,,,,,,,,,,,,,,,1574.109814999858,1575.0579345999286,2,1,1574.109814999858,1575.0579345999286,1575.055113099981,None,0.8329825999680907,,,,,,,,,,,,,,,,,,,,,,,,,,,,,,,1102,001,2,1,2022_Feb_10_1602,task_complete_blocked_LC_updated,2021.2.3,237.7793307522167,
,,,X,1,,,,,,,,,,,10,1,21,0,,,,,,,,,,,,,,,,,,,,,,,,,,,,,,,,,,,,,,,,,,,,,,,,,,,,,,,,,,,,,,,,,,,,,,,,,,,,,,,,,,,,,,,,,,,,,,,,,,,,,,,,,,,1575.1081191999838,1576.0585056999698,1,1,1575.1081191999838,1576.0585056999698,1576.0556808998808,1575.1081191999838,0.5742242999840528,,,,,,,,,,,,,,,,,,,,,,,,,,,,,,,1102,001,2,1,2022_Feb_10_1602,task_complete_blocked_LC_updated,2021.2.3,237.7793307522167,
,,,O,2,,,,,,,,,,,11,0,22,1,,,,,,,,,,,,,,,,,,,,,,,,,,,,,,,,,,,,,,,,,,,,,,,,,,,,,,,,,,,,,,,,,,,,,,,,,,,,,,,,,,,,,,,,,,,,,,,,,,,,,,,,,,,1576.108177299844,1577.0595547000412,2,1,1576.108177299844,1577.0595547000412,1577.056597399991,1576.108177299844,0.3488877001218498,,,,,,,,,,,,,,,,,,,,,,,,,,,,,,,1102,001,2,1,2022_Feb_10_1602,task_complete_blocked_LC_updated,2021.2.3,237.7793307522167,
,,,X,1,,,,,,,,,,,11,1,23,0,,,,,,,,,,,,,,,,,,,,,,,,,,,,,,,,,,,,,,,,,,,,,,,,,,,,,,,,,,,,,,,,,,,,,,,,,,,,,,,,,,,,,,,,,,,,,,,,,,,,,,,,,,,1577.1113374999259,1578.0636521999259,1,1,1577.1113374999259,1578.0636521999259,1578.0607249999885,None,0.3136440999805927,,,,,,,,,,,,,,,,,,,,,,,,,,,,,,,1102,001,2,1,2022_Feb_10_1602,task_complete_blocked_LC_updated,2021.2.3,237.7793307522167,
,,,X,1,,,,,,,,,,,12,0,24,0,,,,,,,,,,,,,,,,,,,,,,,,,,,,,,,,,,,,,,,,,,,,,,,,,,,,,,,,,,,,,,,,,,,,,,,,,,,,,,,,,,,,,,,,,,,,,,,,,,,,,,,,,,,1578.1108631000388,1579.0642611000221,1,1,1578.1108631000388,1579.0642611000221,1579.0545266000554,None,0.46813729987479746,,,,,,,,,,,,,,,,,,,,,,,,,,,,,,,1102,001,2,1,2022_Feb_10_1602,task_complete_blocked_LC_updated,2021.2.3,237.7793307522167,
,,,O,2,,,,,,,,,,,12,1,25,1,,,,,,,,,,,,,,,,,,,,,,,,,,,,,,,,,,,,,,,,,,,,,,,,,,,,,,,,,,,,,,,,,,,,,,,,,,,,,,,,,,,,,,,,,,,,,,,,,,,,,,,,,,,1579.1089965999126,1580.0605699999724,2,1,1579.1089965999126,1580.0605699999724,1580.0575174998958,1579.1089965999126,0.28625350003130734,,,,,,,,,,,,,,,,,,,,,,,,,,,,,,,1102,001,2,1,2022_Feb_10_1602,task_complete_blocked_LC_updated,2021.2.3,237.7793307522167,
,,,O,2,,,,,,,,,,,13,0,26,1,,,,,,,,,,,,,,,,,,,,,,,,,,,,,,,,,,,,,,,,,,,,,,,,,,,,,,,,,,,,,,,,,,,,,,,,,,,,,,,,,,,,,,,,,,,,,,,,,,,,,,,,,,,1580.110894500045,1581.0606296998449,2,1,1580.110894500045,1581.0606296998449,1581.0566272998694,None,0.37237949995324016,,,,,,,,,,,,,,,,,,,,,,,,,,,,,,,1102,001,2,1,2022_Feb_10_1602,task_complete_blocked_LC_updated,2021.2.3,237.7793307522167,
,,,X,1,,,,,,,,,,,13,1,27,0,,,,,,,,,,,,,,,,,,,,,,,,,,,,,,,,,,,,,,,,,,,,,,,,,,,,,,,,,,,,,,,,,,,,,,,,,,,,,,,,,,,,,,,,,,,,,,,,,,,,,,,,,,,1581.111087899888,1582.063807199942,1,1,1581.111087899888,1582.063807199942,1582.06084619998,None,0.3196953001897782,,,,,,,,,,,,,,,,,,,,,,,,,,,,,,,1102,001,2,1,2022_Feb_10_1602,task_complete_blocked_LC_updated,2021.2.3,237.7793307522167,
,,,X,1,,,,,,,,,,,14,0,28,0,,,,,,,,,,,,,,,,,,,,,,,,,,,,,,,,,,,,,,,,,,,,,,,,,,,,,,,,,,,,,,,,,,,,,,,,,,,,,,,,,,,,,,,,,,,,,,,,,,,,,,,,,,,1582.110821899958,1583.0599080000538,1,1,1582.110821899958,1583.0599080000538,1583.057258399902,None,0.3700031000189483,,,,,,,,,,,,,,,,,,,,,,,,,,,,,,,1102,001,2,1,2022_Feb_10_1602,task_complete_blocked_LC_updated,2021.2.3,237.7793307522167,
,,,O,2,,,,,,,,,,,14,1,29,1,,,,,,,,,,,,,,,,,,,,,,,,,,,,,,,,,,,,,,,,,,,,,,,,,,,,,,,,,,,,,,,,,,,,,,,,,,,,,,,,,,,,,,,,,,,,,,,,,,,,,,,,,,,1583.1105214999989,1584.0612914999947,2,1,1583.1105214999989,1584.0612914999947,1584.0582788998727,None,0.2444072999060154,,,,,,,,,,,,,,,,,,,,,,,,,,,,,,,1102,001,2,1,2022_Feb_10_1602,task_complete_blocked_LC_updated,2021.2.3,237.7793307522167,
,,,X,1,,,,,,,,,,,15,0,30,0,,,,,,,,,,,,,,,,,,,,,,,,,,,,,,,,,,,,,,,,,,,,,,,,,,,,,,,,,,,,,,,,,,,,,,,,,,,,,,,,,,,,,,,,,,,,,,,,,,,,,,,,,,,1584.1102320000064,1585.0637707000133,1,1,1584.1102320000064,1585.0637707000133,1585.0568349000532,None,0.6257237999234349,,,,,,,,,,,,,,,,,,,,,,,,,,,,,,,1102,001,2,1,2022_Feb_10_1602,task_complete_blocked_LC_updated,2021.2.3,237.7793307522167,
,,,O,2,,,,,,,,,,,15,1,31,1,,,,,,,,,,,,,,,,,,,,,,,,,,,,,,,,,,,,,,,,,,,,,,,,,,,,,,,,,,,,,,,,,,,,,,,,,,,,,,,,,,,,,,,,,,,,,,,,,,,,,,,,,,,1585.1103529999964,1586.0641864000354,2,1,1585.1103529999964,1586.0641864000354,1586.0605531998444,None,0.38670020014978945,,,,,,,,,,,,,,,,,,,,,,,,,,,,,,,1102,001,2,1,2022_Feb_10_1602,task_complete_blocked_LC_updated,2021.2.3,237.7793307522167,
,,,X,1,,,,,,,,,,,16,0,32,0,,,,,,,,,,,,,,,,,,,,,,,,,,,,,,,,,,,,,,,,,,,,,,,,,,,,,,,,,,,,,,,,,,,,,,,,,,,,,,,,,,,,,,,,,,,,,,,,,,,,,,,,,,,1586.111428800039,1587.065437299898,1,1,1586.111428800039,1587.065437299898,1587.0608485999983,None,0.4925401001237333,,,,,,,,,,,,,,,,,,,,,,,,,,,,,,,1102,001,2,1,2022_Feb_10_1602,task_complete_blocked_LC_updated,2021.2.3,237.7793307522167,
,,,O,2,,,,,,,,,,,16,1,33,1,,,,,,,,,,,,,,,,,,,,,,,,,,,,,,,,,,,,,,,,,,,,,,,,,,,,,,,,,,,,,,,,,,,,,,,,,,,,,,,,,,,,,,,,,,,,,,,,,,,,,,,,,,,1587.11074179993,1588.063560300041,2,1,1587.11074179993,1588.063560300041,1588.0607096999884,None,0.3370819000992924,,,,,,,,,,,,,,,,,,,,,,,,,,,,,,,1102,001,2,1,2022_Feb_10_1602,task_complete_blocked_LC_updated,2021.2.3,237.7793307522167,
,,,X,1,,,,,,,,,,,17,0,34,0,,,,,,,,,,,,,,,,,,,,,,,,,,,,,,,,,,,,,,,,,,,,,,,,,,,,,,,,,,,,,,,,,,,,,,,,,,,,,,,,,,,,,,,,,,,,,,,,,,,,,,,,,,,1588.1106537999585,1589.0617439998314,1,1,1588.1106537999585,1589.0617439998314,1589.0584509000182,None,0.43324550008401275,,,,,,,,,,,,,,,,,,,,,,,,,,,,,,,1102,001,2,1,2022_Feb_10_1602,task_complete_blocked_LC_updated,2021.2.3,237.7793307522167,
,,,O,2,,,,,,,,,,,17,1,35,1,,,,,,,,,,,,,,,,,,,,,,,,,,,,,,,,,,,,,,,,,,,,,,,,,,,,,,,,,,,,,,,,,,,,,,,,,,,,,,,,,,,,,,,,,,,,,,,,,,,,,,,,,,,1589.1103431999218,1590.0602172999643,2,1,1589.1103431999218,1590.0602172999643,1590.0571220000274,None,0.3237628999631852,,,,,,,,,,,,,,,,,,,,,,,,,,,,,,,1102,001,2,1,2022_Feb_10_1602,task_complete_blocked_LC_updated,2021.2.3,237.7793307522167,
,,,X,1,,,,,,,,,,,18,0,36,0,,,,,,,,,,,,,,,,,,,,,,,,,,,,,,,,,,,,,,,,,,,,,,,,,,,,,,,,,,,,,,,,,,,,,,,,,,,,,,,,,,,,,,,,,,,,,,,,,,,,,,,,,,,1590.1112227998674,1591.06255459995,1,1,1590.1112227998674,1591.06255459995,1591.059143600054,None,0.39280180004425347,,,,,,,,,,,,,,,,,,,,,,,,,,,,,,,1102,001,2,1,2022_Feb_10_1602,task_complete_blocked_LC_updated,2021.2.3,237.7793307522167,
,,,O,2,,,,,,,,,,,18,1,37,1,,,,,,,,,,,,,,,,,,,,,,,,,,,,,,,,,,,,,,,,,,,,,,,,,,,,,,,,,,,,,,,,,,,,,,,,,,,,,,,,,,,,,,,,,,,,,,,,,,,,,,,,,,,1591.1096602999605,1592.0573672000319,2,1,1591.1096602999605,1592.0573672000319,1592.0573672000319,None,0.3083962998352945,,,,,,,,,,,,,,,,,,,,,,,,,,,,,,,1102,001,2,1,2022_Feb_10_1602,task_complete_blocked_LC_updated,2021.2.3,237.7793307522167,
,,,X,1,,,,,,,,,,,19,0,38,0,,,,,,,,,,,,,,,,,,,,,,,,,,,,,,,,,,,,,,,,,,,,,,,,,,,,,,,,,,,,,,,,,,,,,,,,,,,,,,,,,,,,,,,,,,,,,,,,,,,,,,,,,,,1592.1093670998234,1593.0583991999738,1,1,1592.1093670998234,1593.0583991999738,1593.0583991999738,1592.1093670998234,0.487752600107342,,,,,,,,,,,,,,,,,,,,,,,,,,,,,,,1102,001,2,1,2022_Feb_10_1602,task_complete_blocked_LC_updated,2021.2.3,237.7793307522167,
,,,O,2,,,,,,,,,,,19,1,39,1,,,,,,,,,,,,,,,,,,,,,,,,,,,,,,,,,,,,,,,,,,,,,,,,,,,,,,,,,,,,,,,,,,,,,,,,,,,,,,,,,,,,,,,,,,,,,,,,,,,,,,,,,,,1593.1112552999984,1594.0636674000416,2,1,1593.1112552999984,1594.0636674000416,1594.0599974999204,None,0.2970841999631375,,,,,,,,,,,,,,,,,,,,,,,,,,,,,,,1102,001,2,1,2022_Feb_10_1602,task_complete_blocked_LC_updated,2021.2.3,237.7793307522167,
,,,X,1,,,,,,,,,,,20,0,40,0,,,,,,,,,,,,,,,,,,,,,,,,,,,,,,,,,,,,,,,,,,,,,,,,,,,,,,,,,,,,,,,,,,,,,,,,,,,,,,,,,,,,,,,,,,,,,,,,,,,,,,,,,,,1594.1105738000479,1595.0612268999685,2,0,1594.1105738000479,1595.0612268999685,1595.057860699948,None,0.8267508000135422,,,,,,,,,,,,,,,,,,,,,,,,,,,,,,,1102,001,2,1,2022_Feb_10_1602,task_complete_blocked_LC_updated,2021.2.3,237.7793307522167,
,,,O,2,,,,,,,,,,,20,1,41,1,,,,,,,,,,,,,,,,,,,,,,,,,,,,,,,,,,,,,,,,,,,,,,,,,,,,,,,,,,,,,,,,,,,,,,,,,,,,,,,,,,,,,,,,,,,,,,,,,,,,,,,,,,,1595.1107175999787,1596.0639317999594,None,0,1595.1107175999787,1596.0639317999594,1596.0607483999338,None,,,,,,,,,,,,,,,,,,,,,,,,,,,,,,,,1102,001,2,1,2022_Feb_10_1602,task_complete_blocked_LC_updated,2021.2.3,237.7793307522167,
,,,X,1,,,,,,,,,,,21,0,42,0,,,,,,,,,,,,,,,,,,,,,,,,,,,,,,,,,,,,,,,,,,,,,,,,,,,,,,,,,,,,,,,,,,,,,,,,,,,,,,,,,,,,,,,,,,,,,,,,,,,,,,,,,,,1596.1110088999849,1597.0639895999338,1,1,1596.1110088999849,1597.0639895999338,1597.0596934000496,None,0.4350009998306632,,,,,,,,,,,,,,,,,,,,,,,,,,,,,,,1102,001,2,1,2022_Feb_10_1602,task_complete_blocked_LC_updated,2021.2.3,237.7793307522167,
,,,O,2,,,,,,,,,,,21,1,43,1,,,,,,,,,,,,,,,,,,,,,,,,,,,,,,,,,,,,,,,,,,,,,,,,,,,,,,,,,,,,,,,,,,,,,,,,,,,,,,,,,,,,,,,,,,,,,,,,,,,,,,,,,,,1597.1116249000188,1598.0616103999782,2,1,1597.1116249000188,1598.0616103999782,1598.0589564000256,None,0.2596852001734078,,,,,,,,,,,,,,,,,,,,,,,,,,,,,,,1102,001,2,1,2022_Feb_10_1602,task_complete_blocked_LC_updated,2021.2.3,237.7793307522167,
,,,O,2,,,,,,,,,,,22,0,44,1,,,,,,,,,,,,,,,,,,,,,,,,,,,,,,,,,,,,,,,,,,,,,,,,,,,,,,,,,,,,,,,,,,,,,,,,,,,,,,,,,,,,,,,,,,,,,,,,,,,,,,,,,,,1598.111561599886,1599.0647145998664,2,1,1598.111561599886,1599.0647145998664,1599.0610777998809,None,0.6255181001033634,,,,,,,,,,,,,,,,,,,,,,,,,,,,,,,1102,001,2,1,2022_Feb_10_1602,task_complete_blocked_LC_updated,2021.2.3,237.7793307522167,
,,,X,1,,,,,,,,,,,22,1,45,0,,,,,,,,,,,,,,,,,,,,,,,,,,,,,,,,,,,,,,,,,,,,,,,,,,,,,,,,,,,,,,,,,,,,,,,,,,,,,,,,,,,,,,,,,,,,,,,,,,,,,,,,,,,1599.1107431999408,1600.059519500006,1,1,1599.1107431999408,1600.059519500006,1600.0562948000152,None,0.9013700999785215,,,,,,,,,,,,,,,,,,,,,,,,,,,,,,,1102,001,2,1,2022_Feb_10_1602,task_complete_blocked_LC_updated,2021.2.3,237.7793307522167,
,,,X,1,,,,,,,,,,,23,0,46,0,,,,,,,,,,,,,,,,,,,,,,,,,,,,,,,,,,,,,,,,,,,,,,,,,,,,,,,,,,,,,,,,,,,,,,,,,,,,,,,,,,,,,,,,,,,,,,,,,,,,,,,,,,,1600.1071039000526,1601.0559991998598,1,1,1600.1071039000526,1601.0559991998598,1601.0535991999786,1600.1071039000526,0.7422793998848647,,,,,,,,,,,,,,,,,,,,,,,,,,,,,,,1102,001,2,1,2022_Feb_10_1602,task_complete_blocked_LC_updated,2021.2.3,237.7793307522167,
,,,O,2,,,,,,,,,,,23,1,47,1,,,,,,,,,,,,,,,,,,,,,,,,,,,,,,,,,,,,,,,,,,,,,,,,,,,,,,,,,,,,,,,,,,,,,,,,,,,,,,,,,,,,,,,,,,,,,,,,,,,,,,,,,,,1601.1086551998742,1602.0621715998277,2,1,1601.1086551998742,1602.0621715998277,1602.05887479987,1601.1086551998742,0.5106361000798643,,,,,,,,,,,,,,,,,,,,,,,,,,,,,,,1102,001,2,1,2022_Feb_10_1602,task_complete_blocked_LC_updated,2021.2.3,237.7793307522167,
,,,X,1,,,,,,,,,,,24,0,48,0,,,,,,,,,,,,,,,,,,,,,,,,,,,,,,,,,,,,,,,,,,,,,,,,,,,,,,,,,,,,,,,,,,,,,,,,,,,,,,,,,,,,,,,,,,,,,,,,,,,,,,,,,,,1602.111434899969,1603.0602561999112,1,1,1602.111434899969,1603.0602561999112,1603.056549999863,None,0.2863944999407977,,,,,,,,,,,,,,,,,,,,,,,,,,,,,,,1102,001,2,1,2022_Feb_10_1602,task_complete_blocked_LC_updated,2021.2.3,237.7793307522167,
,,,O,2,,,,,,,,,,,24,1,49,1,,,,,,,,,,,,,,,,,,,,,,,,,,,,,,,,,,,,,,,,,,,,,,,,,,,,,,,,,,,,,,,,,,,,,,,,,,,,,,,,,,,,,,,,,,,,,,,,,,,,,,,,,,,1603.1117610998917,1604.0636821999215,2,1,1603.1117610998917,1604.0636821999215,1604.0599644000176,None,0.27631270000711083,,,,,,,,,,,,,,,,,,,,,,,,,,,,,,,1102,001,2,1,2022_Feb_10_1602,task_complete_blocked_LC_updated,2021.2.3,237.7793307522167,
,,,O,2,,,,,,,,,,,25,0,50,1,,,,,,,,,,,,,,,,,,,,,,,,,,,,,,,,,,,,,,,,,,,,,,,,,,,,,,,,,,,,,,,,,,,,,,,,,,,,,,,,,,,,,,,,,,,,,,,,,,,,,,,,,,,1604.1095060999505,1605.0608737999573,2,1,1604.1095060999505,1605.0608737999573,1605.0580732000526,None,0.5775448998901993,,,,,,,,,,,,,,,,,,,,,,,,,,,,,,,1102,001,2,1,2022_Feb_10_1602,task_complete_blocked_LC_updated,2021.2.3,237.7793307522167,
,,,X,1,,,,,,,,,,,25,1,51,0,,,,,,,,,,,,,,,,,,,,,,,,,,,,,,,,,,,,,,,,,,,,,,,,,,,,,,,,,,,,,,,,,,,,,,,,,,,,,,,,,,,,,,,,,,,,,,,,,,,,,,,,,,,1605.1111401000526,1606.0621394000482,1,1,1605.1111401000526,1606.0621394000482,1606.0586889998522,None,0.5270412999670953,,,,,,,,,,,,,,,,,,,,,,,,,,,,,,,1102,001,2,1,2022_Feb_10_1602,task_complete_blocked_LC_updated,2021.2.3,237.7793307522167,
,,,O,2,,,,,,,,,,,26,0,52,1,,,,,,,,,,,,,,,,,,,,,,,,,,,,,,,,,,,,,,,,,,,,,,,,,,,,,,,,,,,,,,,,,,,,,,,,,,,,,,,,,,,,,,,,,,,,,,,,,,,,,,,,,,,1606.1110453999136,1607.0647638998926,2,1,1606.1110453999136,1607.0647638998926,1607.06067669997,None,0.5442028001416475,,,,,,,,,,,,,,,,,,,,,,,,,,,,,,,1102,001,2,1,2022_Feb_10_1602,task_complete_blocked_LC_updated,2021.2.3,237.7793307522167,
,,,X,1,,,,,,,,,,,26,1,53,0,,,,,,,,,,,,,,,,,,,,,,,,,,,,,,,,,,,,,,,,,,,,,,,,,,,,,,,,,,,,,,,,,,,,,,,,,,,,,,,,,,,,,,,,,,,,,,,,,,,,,,,,,,,1607.1108542999718,1608.0603681998327,1,1,1607.1108542999718,1608.0603681998327,1608.057826000033,None,0.36541019985452294,,,,,,,,,,,,,,,,,,,,,,,,,,,,,,,1102,001,2,1,2022_Feb_10_1602,task_complete_blocked_LC_updated,2021.2.3,237.7793307522167,
,,,O,2,,,,,,,,,,,27,0,54,1,,,,,,,,,,,,,,,,,,,,,,,,,,,,,,,,,,,,,,,,,,,,,,,,,,,,,,,,,,,,,,,,,,,,,,,,,,,,,,,,,,,,,,,,,,,,,,,,,,,,,,,,,,,1608.1104879998602,1609.060062999837,2,1,1608.1104879998602,1609.060062999837,1609.060062999837,None,0.41183430003002286,,,,,,,,,,,,,,,,,,,,,,,,,,,,,,,1102,001,2,1,2022_Feb_10_1602,task_complete_blocked_LC_updated,2021.2.3,237.7793307522167,
,,,X,1,,,,,,,,,,,27,1,55,0,,,,,,,,,,,,,,,,,,,,,,,,,,,,,,,,,,,,,,,,,,,,,,,,,,,,,,,,,,,,,,,,,,,,,,,,,,,,,,,,,,,,,,,,,,,,,,,,,,,,,,,,,,,1609.1106098999735,1610.0595529999118,1,1,1609.1106098999735,1610.0595529999118,1610.0559960999526,None,0.2774713998660445,,,,,,,,,,,,,,,,,,,,,,,,,,,,,,,1102,001,2,1,2022_Feb_10_1602,task_complete_blocked_LC_updated,2021.2.3,237.7793307522167,
,,,X,1,,,,,,,,,,,28,0,56,0,,,,,,,,,,,,,,,,,,,,,,,,,,,,,,,,,,,,,,,,,,,,,,,,,,,,,,,,,,,,,,,,,,,,,,,,,,,,,,,,,,,,,,,,,,,,,,,,,,,,,,,,,,,1610.107506299857,1611.0569990000222,1,1,1610.107506299857,1611.0569990000222,1611.0569990000222,1610.107506299857,0.3725618999451399,,,,,,,,,,,,,,,,,,,,,,,,,,,,,,,1102,001,2,1,2022_Feb_10_1602,task_complete_blocked_LC_updated,2021.2.3,237.7793307522167,
,,,O,2,,,,,,,,,,,28,1,57,1,,,,,,,,,,,,,,,,,,,,,,,,,,,,,,,,,,,,,,,,,,,,,,,,,,,,,,,,,,,,,,,,,,,,,,,,,,,,,,,,,,,,,,,,,,,,,,,,,,,,,,,,,,,1611.109426900046,1612.0599420999642,2,1,1611.109426900046,1612.0599420999642,1612.057527499972,1611.109426900046,0.388645599829033,,,,,,,,,,,,,,,,,,,,,,,,,,,,,,,1102,001,2,1,2022_Feb_10_1602,task_complete_blocked_LC_updated,2021.2.3,237.7793307522167,
,,,O,2,,,,,,,,,,,29,0,58,1,,,,,,,,,,,,,,,,,,,,,,,,,,,,,,,,,,,,,,,,,,,,,,,,,,,,,,,,,,,,,,,,,,,,,,,,,,,,,,,,,,,,,,,,,,,,,,,,,,,,,,,,,,,1612.1116404999048,1613.0637215999886,2,1,1612.1116404999048,1613.0637215999886,1613.059938200051,None,0.44129139999859035,,,,,,,,,,,,,,,,,,,,,,,,,,,,,,,1102,001,2,1,2022_Feb_10_1602,task_complete_blocked_LC_updated,2021.2.3,237.7793307522167,
,,,X,1,,,,,,,,,,,29,1,59,0,,,,,,,,,,,,,,,,,,,,,,,,,,,,,,,,,,,,,,,,,,,,,,,,,,,,,,,,,,,,,,,,,,,,,,,,,,,,,,,,,,,,,,,,,,,,,,,,,,,,,,,,,,,1613.1106306000147,1614.0616878999863,1,1,1613.1106306000147,1614.0616878999863,1614.0584048000164,None,0.44831230002455413,,,,,,,,,,,,,,,,,,,,,,,,,,,,,,,1102,001,2,1,2022_Feb_10_1602,task_complete_blocked_LC_updated,2021.2.3,237.7793307522167,
,,,,,,,,,,,,,,,,,,,,,,,,,,,,,,,,,,,,,,,,,,,,,,,,,,,,,,,,,,,,,,,,,,,,,,,,,,,,,,,,,,,,,,,,,,,,,,,,,,,,,,,,,,,,,,,,,,,,,,,,,,,,,,,,,,,,,,1614.1096610999666,None,space,35.86912040016614,1619.1098105998244,None,,,,,,,,,,,,,,,,,,,,,,,,,1102,001,2,1,2022_Feb_10_1602,task_complete_blocked_LC_updated,2021.2.3,237.7793307522167,
,,,,,,,,,,,,,,,,,,,,,,,,,,,,,,,,,,,,,,,,,,,,,,,,,,,,,,,,,,,,,,,,,,,,,,,,,,,,,,,,,,,,,,,,,,,,,,,1654.9871024999302,None,5,13.702859400073066,1654.9871024999302,None,,,,,,,,,,,,,,,,,,,,,,,,,,,,,,,,,,,,,,,,1619.1098105998244,None,,,,,,,,,,,,,,,,,,,,,,,1102,001,2,1,2022_Feb_10_1602,task_complete_blocked_LC_updated,2021.2.3,237.7793307522167,
stimulus_images/A_coin.jpg,TIME,0,,,,,,,,,,,,,,,,,0,0,0,0,,,,,,,,,,,,,,,,,,,,,,,,,,,,,,,,,,,,,,,,,,,,,,,,,,,,,,,,,,,,,,,,,,,,,,,,,,,,,,,3.8000289350748062e-06,1668.7084810000379,1670.707452399889,1668.7084810000379,1670.707452399889,1669.7054022999946,1670.707452399889,1669.7054022999946,1670.707452399889,1670.7046505999751,None,5.99701220006682,1674.7020662999712,None,1674.7020662999712,None,1,2.217790199909359,1674.7020662999712,None,1680.6977514999453,None,,,,,,,,,,,,,,,,,,,,,,,,,,,,,,,,,,,,,,,,,,1102,001,2,1,2022_Feb_10_1602,task_complete_blocked_LC_updated,2021.2.3,237.7793307522167,
stimulus_images/Abottleofbat2.jpg,TIME,1,,,,,,,,,,,,,,,,,0,1,1,6,,,,,,,,,,,,,,,,,,,,,,,,,,,,,,,,,,,,,,,,,,,,,,,,,,,,,,,,,,,,,,,,,,,,,,,,,,,,,,,13.994124500080943,1682.7009617998265,1684.7081005999353,1682.7009617998265,1684.7081005999353,1683.6941726999357,1684.6934894998558,1683.6941726999357,1684.6934894998558,1684.6934894998558,None,19.990172800142318,1688.6949006998911,None,1688.6949006998911,None,1,1.2431324999779463,1688.6949006998911,None,1694.70049139997,None,,,,,,,,,,,,,,,,,,,,,,,,,,,,,,,,,,,,,,,,,,1102,001,2,1,2022_Feb_10_1602,task_complete_blocked_LC_updated,2021.2.3,237.7793307522167,
stimulus_images/Abeaver.jpg,TIME,0,,,,,,,,,,,,,,,,,0,2,2,5,,,,,,,,,,,,,,,,,,,,,,,,,,,,,,,,,,,,,,,,,,,,,,,,,,,,,,,,,,,,,,,,,,,,,,,,,,,,,,,28.99859740003012,1697.7064108999912,1699.7065530999098,1697.7064108999912,1699.7065530999098,1698.7041408999357,1699.7033575000241,1698.7041408999357,1699.7033575000241,1699.6995665000286,None,34.998360000085086,1703.7040259998757,None,1703.7040259998757,None,2,1.2022651999723166,1703.7040259998757,None,1709.7083099000156,None,,,,,,,,,,,,,,,,,,,,,,,,,,,,,,,,,,,,,,,,,,1102,001,2,1,2022_Feb_10_1602,task_complete_blocked_LC_updated,2021.2.3,237.7793307522167,
stimulus_images/ACANDLE30.jpg,TIME,0,,,,,,,,,,,,,,,,,0,3,3,7,,,,,,,,,,,,,,,,,,,,,,,,,,,,,,,,,,,,,,,,,,,,,,,,,,,,,,,,,,,,,,,,,,,,,,,,,,,,,,,44.007450399920344,1712.7221285998821,1714.7306706998497,1712.7221285998821,1714.7306706998497,1713.7145348999184,1714.7152668999042,1713.7145348999184,1714.7152668999042,1714.7152668999042,None,50.00848550000228,1718.7161304999609,None,1718.7161304999609,None,1,1.6297180000692606,1718.7161304999609,None,1724.722318300046,None,,,,,,,,,,,,,,,,,,,,,,,,,,,,,,,,,,,,,,,,,,1102,001,2,1,2022_Feb_10_1602,task_complete_blocked_LC_updated,2021.2.3,237.7793307522167,
stimulus_images/A56THUND4.jpg,TIME,0,,,,,,,,,,,,,,,,,0,4,4,1,,,,,,,,,,,,,,,,,,,,,,,,,,,,,,,,,,,,,,,,,,,,,,,,,,,,,,,,,,,,,,,,,,,,,,,,,,,,,,,57.02015729993582,1725.7339434998576,1727.7354337000288,1725.7339434998576,1727.7354337000288,1726.7354732998647,1727.7354337000288,1726.7354732998647,1727.7354337000288,1727.7354337000288,None,63.022446900140494,1731.72741209995,None,1731.72741209995,None,2,1.6912993998266757,1731.72741209995,None,1737.735493300017,None,,,,,,,,,,,,,,,,,,,,,,,,,,,,,,,,,,,,,,,,,,1102,001,2,1,2022_Feb_10_1602,task_complete_blocked_LC_updated,2021.2.3,237.7793307522167,
stimulus_images/ABALLBEAR.jpg,TIME,0,,,,,,,,,,,,,,,,,0,5,5,4,,,,,,,,,,,,,,,,,,,,,,,,,,,,,,,,,,,,,,,,,,,,,,,,,,,,,,,,,,,,,,,,,,,,,,,,,,,,,,,70.03202229994349,1738.7401027998421,1740.7414661999792,1738.7401027998421,1740.7414661999792,1739.736890199827,1740.7382284998894,1739.736890199827,1740.7382284998894,1740.7342890000436,None,76.03225590009242,1744.7377687999979,None,1744.7377687999979,None,3,1.5122780001256615,1744.7377687999979,None,1750.7395339000504,None,,,,,,,,,,,,,,,,,,,,,,,,,,,,,,,,,,,,,,,,,,1102,001,2,1,2022_Feb_10_1602,task_complete_blocked_LC_updated,2021.2.3,237.7793307522167,
stimulus_images/Aammonitefo14.jpg,TIME,1,,,,,,,,,,,,,,,,,0,6,6,2,,,,,,,,,,,,,,,,,,,,,,,,,,,,,,,,,,,,,,,,,,,,,,,,,,,,,,,,,,,,,,,,,,,,,,,,,,,,,,,84.0373734999448,1752.7518007999752,1754.757817399921,1752.7518007999752,1754.757817399921,1753.7486074999906,1754.757817399921,1753.7486074999906,1754.757817399921,1754.757817399921,None,90.03904890012927,1758.7453333998565,None,1758.7453333998565,None,2,1.731060499791056,1758.7453333998565,None,1764.7448495998979,None,,,,,,,,,,,,,,,,,,,,,,,,,,,,,,,,,,,,,,,,,,1102,001,2,1,2022_Feb_10_1602,task_complete_blocked_LC_updated,2021.2.3,237.7793307522167,
stimulus_images/ADRYWOOD.jpg,TIME,0,,,,,,,,,,,,,,,,,0,7,7,9,,,,,,,,,,,,,,,,,,,,,,,,,,,,,,,,,,,,,,,,,,,,,,,,,,,,,,,,,,,,,,,,,,,,,,,,,,,,,,,98.04054960003123,1766.7475367998704,1768.7509341000114,1766.7475367998704,1768.7509341000114,1767.7404185999185,1768.7466150999535,1767.7404185999185,1768.7466150999535,1768.7466150999535,None,104.04335770010948,1772.7488502999768,None,1772.7488502999768,None,1,0.7783440998755395,1772.7488502999768,None,1778.752907200018,None,,,,,,,,,,,,,,,,,,,,,,,,,,,,,,,,,,,,,,,,,,1102,001,2,1,2022_Feb_10_1602,task_complete_blocked_LC_updated,2021.2.3,237.7793307522167,
stimulus_images/AARCCHAR2.jpg,TIME,0,,,,,,,,,,,,,,,,,0,8,8,3,,,,,,,,,,,,,,,,,,,,,,,,,,,,,,,,,,,,,,,,,,,,,,,,,,,,,,,,,,,,,,,,,,,,,,,,,,,,,,,113.05087259993888,1781.7579254999291,1783.7565228999592,1781.7579254999291,1783.7565228999592,1782.7530833999626,1783.754183099838,1782.7530833999626,1783.754183099838,1783.7512038999703,None,119.04917669994757,1787.7540988998953,None,1787.7540988998953,None,3,0.71502840006724,1787.7540988998953,None,1793.7549677998759,None,,,,,,,,,,,,,,,,,,,,,,,,,,,,,,,,,,,,,,,,,,1102,001,2,1,2022_Feb_10_1602,task_complete_blocked_LC_updated,2021.2.3,237.7793307522167,
stimulus_images/Acocktailumb4.jpg,TIME,0,,,,,,,,,,,,,,,,,0,9,9,8,,,,,,,,,,,,,,,,,,,,,,,,,,,,,,,,,,,,,,,,,,,,,,,,,,,,,,,,,,,,,,,,,,,,,,,,,,,,,,,126.05340080009773,1794.7614386000205,1796.7615324999206,1794.7614386000205,1796.7615324999206,1795.7579468998592,1796.7580901999027,1795.7579468998592,1796.7580901999027,1796.753975099884,None,132.0532090999186,1800.7578855999745,None,1800.7578855999745,None,4,1.7751742999535054,1800.7578855999745,None,1806.7587874999736,None,,,,,,,,,,,,,,,,,,,,,,,,,,,,,,,,,,,,,,,,,,1102,001,2,1,2022_Feb_10_1602,task_complete_blocked_LC_updated,2021.2.3,237.7793307522167,
stimulus_images/beanbagchair.jpg,TIME,0,,,,,,,,,,,,,,,,,,,,,0,0,0,5,,,,,,,,,,,,,,,,,,,,,,,,,,,,,,,,,,,,,,,,,,,,,,,,,,,,,,,,,,,,,,,,,,,,,,,,,,,140.06376529997215,1808.7779011998791,1810.778953799978,1808.7779011998791,1810.778953799978,1809.7745017998386,1810.778953799978,1809.7745017998386,1810.778953799978,1810.7737308999058,None,146.06042440002784,1814.7652630999219,None,1814.7652630999219,None,3,0.7859461000189185,1814.7652630999219,None,1820.767144100042,None,,,,,,,,,,,,,,,,,,,,,,,,,,,,,,,,,,,,,,,,,,1102,001,2,1,2022_Feb_10_1602,task_complete_blocked_LC_updated,2021.2.3,237.7793307522167,
stimulus_images/weddingdress.jpg,TIME,0,,,,,,,,,,,,,,,,,,,,,0,1,1,6,,,,,,,,,,,,,,,,,,,,,,,,,,,,,,,,,,,,,,,,,,,,,,,,,,,,,,,,,,,,,,,,,,,,,,,,,,,153.06595310010016,1821.779879000038,1823.779990799958,1821.779879000038,1823.779990799958,1822.7776079999749,1823.779990799958,1822.7776079999749,1823.779990799958,1823.7763775000349,None,159.0687009000685,1827.7741354999598,None,1827.7741354999598,None,3,1.9857296999543905,1827.7741354999598,None,1833.7754704998806,None,,,,,,,,,,,,,,,,,,,,,,,,,,,,,,,,,,,,,,,,,,1102,001,2,1,2022_Feb_10_1602,task_complete_blocked_LC_updated,2021.2.3,237.7793307522167,
stimulus_images/AHIGCHAIR.jpg,TIME,0,,,,,,,,,,,,,,,,,,,,,0,2,2,1,,,,,,,,,,,,,,,,,,,,,,,,,,,,,,,,,,,,,,,,,,,,,,,,,,,,,,,,,,,,,,,,,,,,,,,,,,,167.0737538000103,1835.788018199848,1837.786386599997,1835.788018199848,1837.786386599997,1836.7820158000104,1837.7833205000497,1836.7820158000104,1837.7833205000497,1837.7833205000497,None,173.07717559998855,1841.7863930000458,None,1841.7863930000458,None,1,0.545622400008142,1841.7863930000458,None,1847.787371299928,None,,,,,,,,,,,,,,,,,,,,,,,,,,,,,,,,,,,,,,,,,,1102,001,2,1,2022_Feb_10_1602,task_complete_blocked_LC_updated,2021.2.3,237.7793307522167,
stimulus_images/AABSTRACT.jpg,TIME,1,,,,,,,,,,,,,,,,,,,,,0,3,3,8,,,,,,,,,,,,,,,,,,,,,,,,,,,,,,,,,,,,,,,,,,,,,,,,,,,,,,,,,,,,,,,,,,,,,,,,,,,182.086753499927,1850.8003976999316,1852.8073000998702,1850.8003976999316,1852.8073000998702,1851.795765100047,1852.799205099931,1851.795765100047,1852.799205099931,1852.799205099931,None,188.08980459999293,1856.7945530998986,None,1856.7945530998986,None,1,0.9603347000665963,1856.7945530998986,None,1862.792278100038,None,,,,,,,,,,,,,,,,,,,,,,,,,,,,,,,,,,,,,,,,,,1102,001,2,1,2022_Feb_10_1602,task_complete_blocked_LC_updated,2021.2.3,237.7793307522167,
stimulus_images/AMUSISTA2.jpg,TIME,0,,,,,,,,,,,,,,,,,,,,,0,4,4,2,,,,,,,,,,,,,,,,,,,,,,,,,,,,,,,,,,,,,,,,,,,,,,,,,,,,,,,,,,,,,,,,,,,,,,,,,,,196.09158949996345,1864.8057953000534,1866.8046953999437,1864.8057953000534,1866.8046953999437,1865.8030820998829,1866.8046953999437,1865.8030820998829,1866.8046953999437,1866.802027999889,None,202.09383350005373,1870.7992391998414,None,1870.7992391998414,None,2,1.5178406999912113,1870.7992391998414,None,1876.7998732998967,None,,,,,,,,,,,,,,,,,,,,,,,,,,,,,,,,,,,,,,,,,,1102,001,2,1,2022_Feb_10_1602,task_complete_blocked_LC_updated,2021.2.3,237.7793307522167,
stimulus_images/A_flower.jpg,TIME,0,,,,,,,,,,,,,,,,,,,,,0,5,5,7,,,,,,,,,,,,,,,,,,,,,,,,,,,,,,,,,,,,,,,,,,,,,,,,,,,,,,,,,,,,,,,,,,,,,,,,,,,209.0994915999472,1877.8062636000104,1879.8050195998512,1877.8062636000104,1879.8050195998512,1878.8038901998661,1879.8050195998512,1878.8038901998661,1879.8050195998512,1879.8022856998723,None,215.1003587001469,1883.8057337999344,None,1883.8057337999344,None,4,0.7031596000306308,1883.8057337999344,None,1889.8090399999637,None,,,,,,,,,,,,,,,,,,,,,,,,,,,,,,,,,,,,,,,,,,1102,001,2,1,2022_Feb_10_1602,task_complete_blocked_LC_updated,2021.2.3,237.7793307522167,
stimulus_images/Aribbon21.jpg,TIME,0,,,,,,,,,,,,,,,,,,,,,0,6,6,3,,,,,,,,,,,,,,,,,,,,,,,,,,,,,,,,,,,,,,,,,,,,,,,,,,,,,,,,,,,,,,,,,,,,,,,,,,,223.10801369999535,1891.8219459999818,1893.8219613998663,1891.8219459999818,1893.8219613998663,1892.8208896999713,1893.8219613998663,1892.8208896999713,1893.8219613998663,1893.8183641999494,None,229.11076320009306,1897.8199155998882,None,1897.8199155998882,None,3,1.2901691000442952,1897.8199155998882,None,1903.8191744999494,None,,,,,,,,,,,,,,,,,,,,,,,,,,,,,,,,,,,,,,,,,,1102,001,2,1,2022_Feb_10_1602,task_complete_blocked_LC_updated,2021.2.3,237.7793307522167,
stimulus_images/AGLASSFL4.jpg,TIME,1,,,,,,,,,,,,,,,,,,,,,0,7,7,0,,,,,,,,,,,,,,,,,,,,,,,,,,,,,,,,,,,,,,,,,,,,,,,,,,,,,,,,,,,,,,,,,,,,,,,,,,,237.11623560008593,1905.8235208999831,1907.8243908998556,1905.8235208999831,1907.8243908998556,1906.8199628000148,1907.8216114998795,1906.8199628000148,1907.8216114998795,1907.8216114998795,None,243.11948000011034,1911.8283069999889,None,1911.8283069999889,None,4,1.763205099850893,1911.8283069999889,None,1917.8229685998522,None,,,,,,,,,,,,,,,,,,,,,,,,,,,,,,,,,,,,,,,,,,1102,001,2,1,2022_Feb_10_1602,task_complete_blocked_LC_updated,2021.2.3,237.7793307522167,
stimulus_images/Astereo30.jpg,TIME,1,,,,,,,,,,,,,,,,,,,,,0,8,8,4,,,,,,,,,,,,,,,,,,,,,,,,,,,,,,,,,,,,,,,,,,,,,,,,,,,,,,,,,,,,,,,,,,,,,,,,,,,250.12118060002103,1918.8290858999826,1920.835884399945,1918.8290858999826,1920.835884399945,1919.824247600045,1920.8314431000035,1919.824247600045,1920.8314431000035,1920.8227951999288,None,256.12130649993196,1924.8264224999584,None,1924.8264224999584,None,3,0.9513836000114679,1924.8264224999584,None,1930.8263483999763,None,,,,,,,,,,,,,,,,,,,,,,,,,,,,,,,,,,,,,,,,,,1102,001,2,1,2022_Feb_10_1602,task_complete_blocked_LC_updated,2021.2.3,237.7793307522167,
stimulus_images/Aancientston3.jpg,TIME,0,,,,,,,,,,,,,,,,,,,,,0,9,9,9,,,,,,,,,,,,,,,,,,,,,,,,,,,,,,,,,,,,,,,,,,,,,,,,,,,,,,,,,,,,,,,,,,,,,,,,,,,265.12495520012453,1933.8319265998434,1935.8366594000254,1933.8319265998434,1935.8366594000254,1934.831292100018,1935.8366594000254,1934.831292100018,1935.8366594000254,1935.8366594000254,None,271.1277101000305,1939.8332769998815,None,1939.8332769998815,None,2,0.7550703000742942,1939.8332769998815,None,1945.832713099895,None,,,,,,,,,,,,,,,,,,,,,,,,,,,,,,,,,,,,,,,,,,1102,001,2,1,2022_Feb_10_1602,task_complete_blocked_LC_updated,2021.2.3,237.7793307522167,
,,,O,2,,,,,,,,,,,,,,,,,,,,,,,0,0,0,1,,,,,,,,,,,,,,,,,,,,,,,,,,,,,,,,,,,,,,,,,,,,,,,,,,,,,,,,,,,,,,,,,,,,,,,,,,,,,,,,,,,,,,,,,,,,,1948.8343550998252,None,1951.842742800014,1952.795313499868,2,1,1951.842742800014,1952.795313499868,1952.7923460998572,None,0.8930076998658478,,,,,,,,,,,,,,,,,,,,,,,,,,,,,,,1102,001,2,1,2022_Feb_10_1602,task_complete_blocked_LC_updated,2021.2.3,237.7793307522167,
,,,X,1,,,,,,,,,,,,,,,,,,,,,,,0,1,1,0,,,,,,,,,,,,,,,,,,,,,,,,,,,,,,,,,,,,,,,,,,,,,,,,,,,,,,,,,,,,,,,,,,,,,,,,,,,,,,,,,,,,,,,,,,,,,,,1952.838254599832,1953.7899478999898,1,1,1952.838254599832,1953.7899478999898,1953.786305199843,None,0.528793100034818,,,,,,,,,,,,,,,,,,,,,,,,,,,,,,,1102,001,2,1,2022_Feb_10_1602,task_complete_blocked_LC_updated,2021.2.3,237.7793307522167,
,,,X,1,,,,,,,,,,,,,,,,,,,,,,,1,0,2,0,,,,,,,,,,,,,,,,,,,,,,,,,,,,,,,,,,,,,,,,,,,,,,,,,,,,,,,,,,,,,,,,,,,,,,,,,,,,,,,,,,,,,,,,,,,,,,,1953.8387925999705,1954.7912381000351,1,1,1953.8387925999705,1954.7912381000351,1954.7823504998814,None,0.5224466000217944,,,,,,,,,,,,,,,,,,,,,,,,,,,,,,,1102,001,2,1,2022_Feb_10_1602,task_complete_blocked_LC_updated,2021.2.3,237.7793307522167,
,,,O,2,,,,,,,,,,,,,,,,,,,,,,,1,1,3,1,,,,,,,,,,,,,,,,,,,,,,,,,,,,,,,,,,,,,,,,,,,,,,,,,,,,,,,,,,,,,,,,,,,,,,,,,,,,,,,,,,,,,,,,,,,,,,,1954.8360323999077,1955.7856350999791,2,1,1954.8360323999077,1955.7856350999791,1955.7820526999421,1954.8360323999077,0.3010425998363644,,,,,,,,,,,,,,,,,,,,,,,,,,,,,,,1102,001,2,1,2022_Feb_10_1602,task_complete_blocked_LC_updated,2021.2.3,237.7793307522167,
,,,X,1,,,,,,,,,,,,,,,,,,,,,,,2,0,4,0,,,,,,,,,,,,,,,,,,,,,,,,,,,,,,,,,,,,,,,,,,,,,,,,,,,,,,,,,,,,,,,,,,,,,,,,,,,,,,,,,,,,,,,,,,,,,,,1955.8344680999871,1956.7856646999717,1,1,1955.8344680999871,1956.7856646999717,1956.782763700001,1955.8344680999871,0.5243561000097543,,,,,,,,,,,,,,,,,,,,,,,,,,,,,,,1102,001,2,1,2022_Feb_10_1602,task_complete_blocked_LC_updated,2021.2.3,237.7793307522167,
,,,O,2,,,,,,,,,,,,,,,,,,,,,,,2,1,5,1,,,,,,,,,,,,,,,,,,,,,,,,,,,,,,,,,,,,,,,,,,,,,,,,,,,,,,,,,,,,,,,,,,,,,,,,,,,,,,,,,,,,,,,,,,,,,,,1956.8355839999858,1957.7844126999844,2,1,1956.8355839999858,1957.7844126999844,1957.7844126999844,1956.8355839999858,0.31861709989607334,,,,,,,,,,,,,,,,,,,,,,,,,,,,,,,1102,001,2,1,2022_Feb_10_1602,task_complete_blocked_LC_updated,2021.2.3,237.7793307522167,
,,,X,1,,,,,,,,,,,,,,,,,,,,,,,3,0,6,0,,,,,,,,,,,,,,,,,,,,,,,,,,,,,,,,,,,,,,,,,,,,,,,,,,,,,,,,,,,,,,,,,,,,,,,,,,,,,,,,,,,,,,,,,,,,,,,1957.8377544998657,1958.7862747998443,1,1,1957.8377544998657,1958.7862747998443,1958.7827429999597,1957.8377544998657,0.4496790999546647,,,,,,,,,,,,,,,,,,,,,,,,,,,,,,,1102,001,2,1,2022_Feb_10_1602,task_complete_blocked_LC_updated,2021.2.3,237.7793307522167,
,,,O,2,,,,,,,,,,,,,,,,,,,,,,,3,1,7,1,,,,,,,,,,,,,,,,,,,,,,,,,,,,,,,,,,,,,,,,,,,,,,,,,,,,,,,,,,,,,,,,,,,,,,,,,,,,,,,,,,,,,,,,,,,,,,,1958.8365170999896,1959.7896902000066,2,1,1958.8365170999896,1959.7896902000066,1959.781210300047,1958.8365170999896,0.24442910007201135,,,,,,,,,,,,,,,,,,,,,,,,,,,,,,,1102,001,2,1,2022_Feb_10_1602,task_complete_blocked_LC_updated,2021.2.3,237.7793307522167,
,,,X,1,,,,,,,,,,,,,,,,,,,,,,,4,0,8,0,,,,,,,,,,,,,,,,,,,,,,,,,,,,,,,,,,,,,,,,,,,,,,,,,,,,,,,,,,,,,,,,,,,,,,,,,,,,,,,,,,,,,,,,,,,,,,,1959.83553819987,1960.7842313,1,1,1959.83553819987,1960.7842313,1960.7842313,1959.83553819987,0.5049286000430584,,,,,,,,,,,,,,,,,,,,,,,,,,,,,,,1102,001,2,1,2022_Feb_10_1602,task_complete_blocked_LC_updated,2021.2.3,237.7793307522167,
,,,O,2,,,,,,,,,,,,,,,,,,,,,,,4,1,9,1,,,,,,,,,,,,,,,,,,,,,,,,,,,,,,,,,,,,,,,,,,,,,,,,,,,,,,,,,,,,,,,,,,,,,,,,,,,,,,,,,,,,,,,,,,,,,,,1960.8375746998936,1961.7893325998448,2,1,1960.8375746998936,1961.7893325998448,1961.7859364999458,1960.8375746998936,0.3646305000875145,,,,,,,,,,,,,,,,,,,,,,,,,,,,,,,1102,001,2,1,2022_Feb_10_1602,task_complete_blocked_LC_updated,2021.2.3,237.7793307522167,
,,,O,2,,,,,,,,,,,,,,,,,,,,,,,5,0,10,1,,,,,,,,,,,,,,,,,,,,,,,,,,,,,,,,,,,,,,,,,,,,,,,,,,,,,,,,,,,,,,,,,,,,,,,,,,,,,,,,,,,,,,,,,,,,,,,1961.8377026000526,1962.7915999998804,2,1,1961.8377026000526,1962.7915999998804,1962.7820190999191,None,0.38458880013786256,,,,,,,,,,,,,,,,,,,,,,,,,,,,,,,1102,001,2,1,2022_Feb_10_1602,task_complete_blocked_LC_updated,2021.2.3,237.7793307522167,
,,,X,1,,,,,,,,,,,,,,,,,,,,,,,5,1,11,0,,,,,,,,,,,,,,,,,,,,,,,,,,,,,,,,,,,,,,,,,,,,,,,,,,,,,,,,,,,,,,,,,,,,,,,,,,,,,,,,,,,,,,,,,,,,,,,1962.839806899894,1963.7898258999921,1,1,1962.839806899894,1963.7898258999921,1963.786593799945,1962.839806899894,0.35726939979940653,,,,,,,,,,,,,,,,,,,,,,,,,,,,,,,1102,001,2,1,2022_Feb_10_1602,task_complete_blocked_LC_updated,2021.2.3,237.7793307522167,
,,,O,2,,,,,,,,,,,,,,,,,,,,,,,6,0,12,1,,,,,,,,,,,,,,,,,,,,,,,,,,,,,,,,,,,,,,,,,,,,,,,,,,,,,,,,,,,,,,,,,,,,,,,,,,,,,,,,,,,,,,,,,,,,,,,1963.8387527999002,1964.788527699886,2,1,1963.8387527999002,1964.788527699886,1964.7854605000466,None,0.4575007001403719,,,,,,,,,,,,,,,,,,,,,,,,,,,,,,,1102,001,2,1,2022_Feb_10_1602,task_complete_blocked_LC_updated,2021.2.3,237.7793307522167,
,,,X,1,,,,,,,,,,,,,,,,,,,,,,,6,1,13,0,,,,,,,,,,,,,,,,,,,,,,,,,,,,,,,,,,,,,,,,,,,,,,,,,,,,,,,,,,,,,,,,,,,,,,,,,,,,,,,,,,,,,,,,,,,,,,,1964.838656899985,1965.787707499927,1,1,1964.838656899985,1965.787707499927,1965.7844364000484,None,0.3281243001110852,,,,,,,,,,,,,,,,,,,,,,,,,,,,,,,1102,001,2,1,2022_Feb_10_1602,task_complete_blocked_LC_updated,2021.2.3,237.7793307522167,
,,,X,1,,,,,,,,,,,,,,,,,,,,,,,7,0,14,0,,,,,,,,,,,,,,,,,,,,,,,,,,,,,,,,,,,,,,,,,,,,,,,,,,,,,,,,,,,,,,,,,,,,,,,,,,,,,,,,,,,,,,,,,,,,,,,1965.8373662000522,1966.7893661998678,1,1,1965.8373662000522,1966.7893661998678,1966.786232399987,None,0.48690970009192824,,,,,,,,,,,,,,,,,,,,,,,,,,,,,,,1102,001,2,1,2022_Feb_10_1602,task_complete_blocked_LC_updated,2021.2.3,237.7793307522167,
,,,O,2,,,,,,,,,,,,,,,,,,,,,,,7,1,15,1,,,,,,,,,,,,,,,,,,,,,,,,,,,,,,,,,,,,,,,,,,,,,,,,,,,,,,,,,,,,,,,,,,,,,,,,,,,,,,,,,,,,,,,,,,,,,,,1966.8416722998954,1967.7946078998502,2,1,1966.8416722998954,1967.7946078998502,1967.7903094999492,None,0.2932448999490589,,,,,,,,,,,,,,,,,,,,,,,,,,,,,,,1102,001,2,1,2022_Feb_10_1602,task_complete_blocked_LC_updated,2021.2.3,237.7793307522167,
,,,X,1,,,,,,,,,,,,,,,,,,,,,,,8,0,16,0,,,,,,,,,,,,,,,,,,,,,,,,,,,,,,,,,,,,,,,,,,,,,,,,,,,,,,,,,,,,,,,,,,,,,,,,,,,,,,,,,,,,,,,,,,,,,,,1967.8383480999619,1968.7916160000023,1,1,1967.8383480999619,1968.7916160000023,1968.7872436000034,None,0.4956954999361187,,,,,,,,,,,,,,,,,,,,,,,,,,,,,,,1102,001,2,1,2022_Feb_10_1602,task_complete_blocked_LC_updated,2021.2.3,237.7793307522167,
,,,O,2,,,,,,,,,,,,,,,,,,,,,,,8,1,17,1,,,,,,,,,,,,,,,,,,,,,,,,,,,,,,,,,,,,,,,,,,,,,,,,,,,,,,,,,,,,,,,,,,,,,,,,,,,,,,,,,,,,,,,,,,,,,,,1968.8387478999794,1969.7919808998704,2,1,1968.8387478999794,1969.7919808998704,1969.7887331999373,None,0.3072548001073301,,,,,,,,,,,,,,,,,,,,,,,,,,,,,,,1102,001,2,1,2022_Feb_10_1602,task_complete_blocked_LC_updated,2021.2.3,237.7793307522167,
,,,O,2,,,,,,,,,,,,,,,,,,,,,,,9,0,18,1,,,,,,,,,,,,,,,,,,,,,,,,,,,,,,,,,,,,,,,,,,,,,,,,,,,,,,,,,,,,,,,,,,,,,,,,,,,,,,,,,,,,,,,,,,,,,,,1969.8385168998502,1970.79153269995,2,1,1969.8385168998502,1970.79153269995,1970.7820617000107,None,0.5746081999968737,,,,,,,,,,,,,,,,,,,,,,,,,,,,,,,1102,001,2,1,2022_Feb_10_1602,task_complete_blocked_LC_updated,2021.2.3,237.7793307522167,
,,,X,1,,,,,,,,,,,,,,,,,,,,,,,9,1,19,0,,,,,,,,,,,,,,,,,,,,,,,,,,,,,,,,,,,,,,,,,,,,,,,,,,,,,,,,,,,,,,,,,,,,,,,,,,,,,,,,,,,,,,,,,,,,,,,1970.8369243999477,1971.7897022999823,1,1,1970.8369243999477,1971.7897022999823,1971.7870981998276,1970.8369243999477,0.3720411998219788,,,,,,,,,,,,,,,,,,,,,,,,,,,,,,,1102,001,2,1,2022_Feb_10_1602,task_complete_blocked_LC_updated,2021.2.3,237.7793307522167,
,,,O,2,,,,,,,,,,,,,,,,,,,,,,,10,0,20,1,,,,,,,,,,,,,,,,,,,,,,,,,,,,,,,,,,,,,,,,,,,,,,,,,,,,,,,,,,,,,,,,,,,,,,,,,,,,,,,,,,,,,,,,,,,,,,,1971.8373403998557,1972.7886691000313,2,1,1971.8373403998557,1972.7886691000313,1972.7854571000207,None,0.4559734999202192,,,,,,,,,,,,,,,,,,,,,,,,,,,,,,,1102,001,2,1,2022_Feb_10_1602,task_complete_blocked_LC_updated,2021.2.3,237.7793307522167,
,,,X,1,,,,,,,,,,,,,,,,,,,,,,,10,1,21,0,,,,,,,,,,,,,,,,,,,,,,,,,,,,,,,,,,,,,,,,,,,,,,,,,,,,,,,,,,,,,,,,,,,,,,,,,,,,,,,,,,,,,,,,,,,,,,,1972.8383972998708,1973.7900882000104,1,1,1972.8383972998708,1973.7900882000104,1973.7865851998795,None,0.32469050004146993,,,,,,,,,,,,,,,,,,,,,,,,,,,,,,,1102,001,2,1,2022_Feb_10_1602,task_complete_blocked_LC_updated,2021.2.3,237.7793307522167,
,,,O,2,,,,,,,,,,,,,,,,,,,,,,,11,0,22,1,,,,,,,,,,,,,,,,,,,,,,,,,,,,,,,,,,,,,,,,,,,,,,,,,,,,,,,,,,,,,,,,,,,,,,,,,,,,,,,,,,,,,,,,,,,,,,,1973.8388759000227,1974.790519000031,2,1,1973.8388759000227,1974.790519000031,1974.7869406999089,None,0.5331305998843163,,,,,,,,,,,,,,,,,,,,,,,,,,,,,,,1102,001,2,1,2022_Feb_10_1602,task_complete_blocked_LC_updated,2021.2.3,237.7793307522167,
,,,X,1,,,,,,,,,,,,,,,,,,,,,,,11,1,23,0,,,,,,,,,,,,,,,,,,,,,,,,,,,,,,,,,,,,,,,,,,,,,,,,,,,,,,,,,,,,,,,,,,,,,,,,,,,,,,,,,,,,,,,,,,,,,,,1974.8396631998476,1975.788459799951,1,1,1974.8396631998476,1975.788459799951,1975.7850950998254,None,0.562354699941352,,,,,,,,,,,,,,,,,,,,,,,,,,,,,,,1102,001,2,1,2022_Feb_10_1602,task_complete_blocked_LC_updated,2021.2.3,237.7793307522167,
,,,X,1,,,,,,,,,,,,,,,,,,,,,,,12,0,24,0,,,,,,,,,,,,,,,,,,,,,,,,,,,,,,,,,,,,,,,,,,,,,,,,,,,,,,,,,,,,,,,,,,,,,,,,,,,,,,,,,,,,,,,,,,,,,,,1975.8415206000209,1976.79254519986,1,1,1975.8415206000209,1976.79254519986,1976.7824800000526,None,0.34946139995008707,,,,,,,,,,,,,,,,,,,,,,,,,,,,,,,1102,001,2,1,2022_Feb_10_1602,task_complete_blocked_LC_updated,2021.2.3,237.7793307522167,
,,,O,2,,,,,,,,,,,,,,,,,,,,,,,12,1,25,1,,,,,,,,,,,,,,,,,,,,,,,,,,,,,,,,,,,,,,,,,,,,,,,,,,,,,,,,,,,,,,,,,,,,,,,,,,,,,,,,,,,,,,,,,,,,,,,1976.8364066998474,1977.7899712000508,2,1,1976.8364066998474,1977.7899712000508,1977.7866772999987,1976.8364066998474,0.5587675001006573,,,,,,,,,,,,,,,,,,,,,,,,,,,,,,,1102,001,2,1,2022_Feb_10_1602,task_complete_blocked_LC_updated,2021.2.3,237.7793307522167,
,,,X,1,,,,,,,,,,,,,,,,,,,,,,,13,0,26,0,,,,,,,,,,,,,,,,,,,,,,,,,,,,,,,,,,,,,,,,,,,,,,,,,,,,,,,,,,,,,,,,,,,,,,,,,,,,,,,,,,,,,,,,,,,,,,,1977.838352699997,1978.792713599978,1,1,1977.838352699997,1978.792713599978,1978.7874043998308,None,0.5159732000902295,,,,,,,,,,,,,,,,,,,,,,,,,,,,,,,1102,001,2,1,2022_Feb_10_1602,task_complete_blocked_LC_updated,2021.2.3,237.7793307522167,
,,,O,2,,,,,,,,,,,,,,,,,,,,,,,13,1,27,1,,,,,,,,,,,,,,,,,,,,,,,,,,,,,,,,,,,,,,,,,,,,,,,,,,,,,,,,,,,,,,,,,,,,,,,,,,,,,,,,,,,,,,,,,,,,,,,1978.8385089999065,1979.7877897999715,2,1,1978.8385089999065,1979.7877897999715,1979.7877897999715,None,0.37248370004817843,,,,,,,,,,,,,,,,,,,,,,,,,,,,,,,1102,001,2,1,2022_Feb_10_1602,task_complete_blocked_LC_updated,2021.2.3,237.7793307522167,
,,,O,2,,,,,,,,,,,,,,,,,,,,,,,14,0,28,1,,,,,,,,,,,,,,,,,,,,,,,,,,,,,,,,,,,,,,,,,,,,,,,,,,,,,,,,,,,,,,,,,,,,,,,,,,,,,,,,,,,,,,,,,,,,,,,1979.8370645998511,1980.7882022999693,2,1,1979.8370645998511,1980.7882022999693,1980.7846714998595,None,0.42604639986529946,,,,,,,,,,,,,,,,,,,,,,,,,,,,,,,1102,001,2,1,2022_Feb_10_1602,task_complete_blocked_LC_updated,2021.2.3,237.7793307522167,
,,,X,1,,,,,,,,,,,,,,,,,,,,,,,14,1,29,0,,,,,,,,,,,,,,,,,,,,,,,,,,,,,,,,,,,,,,,,,,,,,,,,,,,,,,,,,,,,,,,,,,,,,,,,,,,,,,,,,,,,,,,,,,,,,,,1980.8379504999612,1981.78898689989,1,1,1980.8379504999612,1981.78898689989,1981.7857832999434,None,0.4270959000568837,,,,,,,,,,,,,,,,,,,,,,,,,,,,,,,1102,001,2,1,2022_Feb_10_1602,task_complete_blocked_LC_updated,2021.2.3,237.7793307522167,
,,,X,1,,,,,,,,,,,,,,,,,,,,,,,15,0,30,0,,,,,,,,,,,,,,,,,,,,,,,,,,,,,,,,,,,,,,,,,,,,,,,,,,,,,,,,,,,,,,,,,,,,,,,,,,,,,,,,,,,,,,,,,,,,,,,1981.8388363998383,1982.7887909999117,1,1,1981.8388363998383,1982.7887909999117,1982.7865156999324,None,0.4062308999709785,,,,,,,,,,,,,,,,,,,,,,,,,,,,,,,1102,001,2,1,2022_Feb_10_1602,task_complete_blocked_LC_updated,2021.2.3,237.7793307522167,
,,,O,2,,,,,,,,,,,,,,,,,,,,,,,15,1,31,1,,,,,,,,,,,,,,,,,,,,,,,,,,,,,,,,,,,,,,,,,,,,,,,,,,,,,,,,,,,,,,,,,,,,,,,,,,,,,,,,,,,,,,,,,,,,,,,1982.838677200023,1983.788884199923,2,1,1982.838677200023,1983.788884199923,1983.7857564999722,None,0.48943850002251565,,,,,,,,,,,,,,,,,,,,,,,,,,,,,,,1102,001,2,1,2022_Feb_10_1602,task_complete_blocked_LC_updated,2021.2.3,237.7793307522167,
,,,X,1,,,,,,,,,,,,,,,,,,,,,,,16,0,32,0,,,,,,,,,,,,,,,,,,,,,,,,,,,,,,,,,,,,,,,,,,,,,,,,,,,,,,,,,,,,,,,,,,,,,,,,,,,,,,,,,,,,,,,,,,,,,,,1983.8380505999085,1984.7917283000425,1,1,1983.8380505999085,1984.7917283000425,1984.787282699952,None,0.49126049992628396,,,,,,,,,,,,,,,,,,,,,,,,,,,,,,,1102,001,2,1,2022_Feb_10_1602,task_complete_blocked_LC_updated,2021.2.3,237.7793307522167,
,,,O,2,,,,,,,,,,,,,,,,,,,,,,,16,1,33,1,,,,,,,,,,,,,,,,,,,,,,,,,,,,,,,,,,,,,,,,,,,,,,,,,,,,,,,,,,,,,,,,,,,,,,,,,,,,,,,,,,,,,,,,,,,,,,,1984.8378460998647,1985.7919260000344,2,1,1984.8378460998647,1985.7919260000344,1985.7877020998858,None,0.35009619989432395,,,,,,,,,,,,,,,,,,,,,,,,,,,,,,,1102,001,2,1,2022_Feb_10_1602,task_complete_blocked_LC_updated,2021.2.3,237.7793307522167,
,,,X,1,,,,,,,,,,,,,,,,,,,,,,,17,0,34,0,,,,,,,,,,,,,,,,,,,,,,,,,,,,,,,,,,,,,,,,,,,,,,,,,,,,,,,,,,,,,,,,,,,,,,,,,,,,,,,,,,,,,,,,,,,,,,,1985.838379799854,1986.7920764000155,1,1,1985.838379799854,1986.7920764000155,1986.7890412998386,None,0.5004408999811858,,,,,,,,,,,,,,,,,,,,,,,,,,,,,,,1102,001,2,1,2022_Feb_10_1602,task_complete_blocked_LC_updated,2021.2.3,237.7793307522167,
,,,O,2,,,,,,,,,,,,,,,,,,,,,,,17,1,35,1,,,,,,,,,,,,,,,,,,,,,,,,,,,,,,,,,,,,,,,,,,,,,,,,,,,,,,,,,,,,,,,,,,,,,,,,,,,,,,,,,,,,,,,,,,,,,,,1986.837997699855,1987.7885636999272,2,1,1986.837997699855,1987.7885636999272,1987.7851003999822,None,0.3922890000976622,,,,,,,,,,,,,,,,,,,,,,,,,,,,,,,1102,001,2,1,2022_Feb_10_1602,task_complete_blocked_LC_updated,2021.2.3,237.7793307522167,
,,,X,1,,,,,,,,,,,,,,,,,,,,,,,18,0,36,0,,,,,,,,,,,,,,,,,,,,,,,,,,,,,,,,,,,,,,,,,,,,,,,,,,,,,,,,,,,,,,,,,,,,,,,,,,,,,,,,,,,,,,,,,,,,,,,1987.8391944000032,1988.7887981999665,1,1,1987.8391944000032,1988.7887981999665,1988.7887981999665,None,0.4729648001957685,,,,,,,,,,,,,,,,,,,,,,,,,,,,,,,1102,001,2,1,2022_Feb_10_1602,task_complete_blocked_LC_updated,2021.2.3,237.7793307522167,
,,,O,2,,,,,,,,,,,,,,,,,,,,,,,18,1,37,1,,,,,,,,,,,,,,,,,,,,,,,,,,,,,,,,,,,,,,,,,,,,,,,,,,,,,,,,,,,,,,,,,,,,,,,,,,,,,,,,,,,,,,,,,,,,,,,1988.8394404000137,1989.7903495999053,2,1,1988.8394404000137,1989.7903495999053,1989.7869871000294,None,0.36554999998770654,,,,,,,,,,,,,,,,,,,,,,,,,,,,,,,1102,001,2,1,2022_Feb_10_1602,task_complete_blocked_LC_updated,2021.2.3,237.7793307522167,
,,,O,2,,,,,,,,,,,,,,,,,,,,,,,19,0,38,1,,,,,,,,,,,,,,,,,,,,,,,,,,,,,,,,,,,,,,,,,,,,,,,,,,,,,,,,,,,,,,,,,,,,,,,,,,,,,,,,,,,,,,,,,,,,,,,1989.8381513999775,1990.791759799933,2,1,1989.8381513999775,1990.791759799933,1990.787448399933,None,0.5351688999217004,,,,,,,,,,,,,,,,,,,,,,,,,,,,,,,1102,001,2,1,2022_Feb_10_1602,task_complete_blocked_LC_updated,2021.2.3,237.7793307522167,
,,,X,1,,,,,,,,,,,,,,,,,,,,,,,19,1,39,0,,,,,,,,,,,,,,,,,,,,,,,,,,,,,,,,,,,,,,,,,,,,,,,,,,,,,,,,,,,,,,,,,,,,,,,,,,,,,,,,,,,,,,,,,,,,,,,1990.838090899866,1991.7916870999616,1,1,1990.838090899866,1991.7916870999616,1991.782200699905,None,0.3602808997966349,,,,,,,,,,,,,,,,,,,,,,,,,,,,,,,1102,001,2,1,2022_Feb_10_1602,task_complete_blocked_LC_updated,2021.2.3,237.7793307522167,
,,,X,1,,,,,,,,,,,,,,,,,,,,,,,20,0,40,0,,,,,,,,,,,,,,,,,,,,,,,,,,,,,,,,,,,,,,,,,,,,,,,,,,,,,,,,,,,,,,,,,,,,,,,,,,,,,,,,,,,,,,,,,,,,,,,1991.835558099905,1992.7841999998782,1,1,1991.835558099905,1992.7841999998782,1992.7818572998513,1991.835558099905,0.41751560010015965,,,,,,,,,,,,,,,,,,,,,,,,,,,,,,,1102,001,2,1,2022_Feb_10_1602,task_complete_blocked_LC_updated,2021.2.3,237.7793307522167,
,,,O,2,,,,,,,,,,,,,,,,,,,,,,,20,1,41,1,,,,,,,,,,,,,,,,,,,,,,,,,,,,,,,,,,,,,,,,,,,,,,,,,,,,,,,,,,,,,,,,,,,,,,,,,,,,,,,,,,,,,,,,,,,,,,,1992.8362457000185,1993.7860656999983,2,1,1992.8362457000185,1993.7860656999983,1993.782517899992,1992.8362457000185,0.2921843999065459,,,,,,,,,,,,,,,,,,,,,,,,,,,,,,,1102,001,2,1,2022_Feb_10_1602,task_complete_blocked_LC_updated,2021.2.3,237.7793307522167,
,,,O,2,,,,,,,,,,,,,,,,,,,,,,,21,0,42,1,,,,,,,,,,,,,,,,,,,,,,,,,,,,,,,,,,,,,,,,,,,,,,,,,,,,,,,,,,,,,,,,,,,,,,,,,,,,,,,,,,,,,,,,,,,,,,,1993.8347581999842,1994.7849878999405,2,1,1993.8347581999842,1994.7849878999405,1994.7824649999384,1993.8347581999842,0.45449210004881024,,,,,,,,,,,,,,,,,,,,,,,,,,,,,,,1102,001,2,1,2022_Feb_10_1602,task_complete_blocked_LC_updated,2021.2.3,237.7793307522167,
,,,X,1,,,,,,,,,,,,,,,,,,,,,,,21,1,43,0,,,,,,,,,,,,,,,,,,,,,,,,,,,,,,,,,,,,,,,,,,,,,,,,,,,,,,,,,,,,,,,,,,,,,,,,,,,,,,,,,,,,,,,,,,,,,,,1994.8358195000328,1995.7837681998499,1,1,1994.8358195000328,1995.7837681998499,1995.7837681998499,1994.8358195000328,0.44624980003573,,,,,,,,,,,,,,,,,,,,,,,,,,,,,,,1102,001,2,1,2022_Feb_10_1602,task_complete_blocked_LC_updated,2021.2.3,237.7793307522167,
,,,O,2,,,,,,,,,,,,,,,,,,,,,,,22,0,44,1,,,,,,,,,,,,,,,,,,,,,,,,,,,,,,,,,,,,,,,,,,,,,,,,,,,,,,,,,,,,,,,,,,,,,,,,,,,,,,,,,,,,,,,,,,,,,,,1995.8352669999003,1996.7843438000418,2,1,1995.8352669999003,1996.7843438000418,1996.7814320998732,1995.8352669999003,0.5087248999625444,,,,,,,,,,,,,,,,,,,,,,,,,,,,,,,1102,001,2,1,2022_Feb_10_1602,task_complete_blocked_LC_updated,2021.2.3,237.7793307522167,
,,,X,1,,,,,,,,,,,,,,,,,,,,,,,22,1,45,0,,,,,,,,,,,,,,,,,,,,,,,,,,,,,,,,,,,,,,,,,,,,,,,,,,,,,,,,,,,,,,,,,,,,,,,,,,,,,,,,,,,,,,,,,,,,,,,1996.8351102999877,1997.7848671998363,1,1,1996.8351102999877,1997.7848671998363,1997.7848671998363,1996.8351102999877,0.34788369992747903,,,,,,,,,,,,,,,,,,,,,,,,,,,,,,,1102,001,2,1,2022_Feb_10_1602,task_complete_blocked_LC_updated,2021.2.3,237.7793307522167,
,,,X,1,,,,,,,,,,,,,,,,,,,,,,,23,0,46,0,,,,,,,,,,,,,,,,,,,,,,,,,,,,,,,,,,,,,,,,,,,,,,,,,,,,,,,,,,,,,,,,,,,,,,,,,,,,,,,,,,,,,,,,,,,,,,,1997.8349164000247,1998.7881438999902,1,1,1997.8349164000247,1998.7881438999902,1998.785078600049,None,0.3698404999449849,,,,,,,,,,,,,,,,,,,,,,,,,,,,,,,1102,001,2,1,2022_Feb_10_1602,task_complete_blocked_LC_updated,2021.2.3,237.7793307522167,
,,,O,2,,,,,,,,,,,,,,,,,,,,,,,23,1,47,1,,,,,,,,,,,,,,,,,,,,,,,,,,,,,,,,,,,,,,,,,,,,,,,,,,,,,,,,,,,,,,,,,,,,,,,,,,,,,,,,,,,,,,,,,,,,,,,1998.8387611999642,1999.7894594999962,2,1,1998.8387611999642,1999.7894594999962,1999.7871458998416,None,0.6255138998385519,,,,,,,,,,,,,,,,,,,,,,,,,,,,,,,1102,001,2,1,2022_Feb_10_1602,task_complete_blocked_LC_updated,2021.2.3,237.7793307522167,
,,,O,2,,,,,,,,,,,,,,,,,,,,,,,24,0,48,1,,,,,,,,,,,,,,,,,,,,,,,,,,,,,,,,,,,,,,,,,,,,,,,,,,,,,,,,,,,,,,,,,,,,,,,,,,,,,,,,,,,,,,,,,,,,,,,1999.8373658000492,2000.7876558999997,2,1,1999.8373658000492,2000.7876558999997,2000.783711799886,None,0.540743299992755,,,,,,,,,,,,,,,,,,,,,,,,,,,,,,,1102,001,2,1,2022_Feb_10_1602,task_complete_blocked_LC_updated,2021.2.3,237.7793307522167,
,,,X,1,,,,,,,,,,,,,,,,,,,,,,,24,1,49,0,,,,,,,,,,,,,,,,,,,,,,,,,,,,,,,,,,,,,,,,,,,,,,,,,,,,,,,,,,,,,,,,,,,,,,,,,,,,,,,,,,,,,,,,,,,,,,,2000.8363808998838,2001.7895018998533,1,1,2000.8363808998838,2001.7895018998533,2001.7863280000165,2000.8363808998838,0.4257142001297325,,,,,,,,,,,,,,,,,,,,,,,,,,,,,,,1102,001,2,1,2022_Feb_10_1602,task_complete_blocked_LC_updated,2021.2.3,237.7793307522167,
,,,X,1,,,,,,,,,,,,,,,,,,,,,,,25,0,50,0,,,,,,,,,,,,,,,,,,,,,,,,,,,,,,,,,,,,,,,,,,,,,,,,,,,,,,,,,,,,,,,,,,,,,,,,,,,,,,,,,,,,,,,,,,,,,,,2001.8420756999403,2002.793118600035,1,1,2001.8420756999403,2002.793118600035,2002.7900682999752,None,0.35515149985440075,,,,,,,,,,,,,,,,,,,,,,,,,,,,,,,1102,001,2,1,2022_Feb_10_1602,task_complete_blocked_LC_updated,2021.2.3,237.7793307522167,
,,,O,2,,,,,,,,,,,,,,,,,,,,,,,25,1,51,1,,,,,,,,,,,,,,,,,,,,,,,,,,,,,,,,,,,,,,,,,,,,,,,,,,,,,,,,,,,,,,,,,,,,,,,,,,,,,,,,,,,,,,,,,,,,,,,2002.8399235999677,2003.7891997999977,2,1,2002.8399235999677,2003.7891997999977,2003.7862884998322,None,0.3422366001177579,,,,,,,,,,,,,,,,,,,,,,,,,,,,,,,1102,001,2,1,2022_Feb_10_1602,task_complete_blocked_LC_updated,2021.2.3,237.7793307522167,
,,,X,1,,,,,,,,,,,,,,,,,,,,,,,26,0,52,0,,,,,,,,,,,,,,,,,,,,,,,,,,,,,,,,,,,,,,,,,,,,,,,,,,,,,,,,,,,,,,,,,,,,,,,,,,,,,,,,,,,,,,,,,,,,,,,2003.8382741999812,2004.7903984999284,1,1,2003.8382741999812,2004.7903984999284,2004.7870455000084,None,0.4457845001015812,,,,,,,,,,,,,,,,,,,,,,,,,,,,,,,1102,001,2,1,2022_Feb_10_1602,task_complete_blocked_LC_updated,2021.2.3,237.7793307522167,
,,,O,2,,,,,,,,,,,,,,,,,,,,,,,26,1,53,1,,,,,,,,,,,,,,,,,,,,,,,,,,,,,,,,,,,,,,,,,,,,,,,,,,,,,,,,,,,,,,,,,,,,,,,,,,,,,,,,,,,,,,,,,,,,,,,2004.8392494998407,2005.7926980999764,2,1,2004.8392494998407,2005.7926980999764,2005.7894069999456,None,0.5526008999440819,,,,,,,,,,,,,,,,,,,,,,,,,,,,,,,1102,001,2,1,2022_Feb_10_1602,task_complete_blocked_LC_updated,2021.2.3,237.7793307522167,
,,,X,1,,,,,,,,,,,,,,,,,,,,,,,27,0,54,0,,,,,,,,,,,,,,,,,,,,,,,,,,,,,,,,,,,,,,,,,,,,,,,,,,,,,,,,,,,,,,,,,,,,,,,,,,,,,,,,,,,,,,,,,,,,,,,2005.8389634999912,2006.7904749999288,1,1,2005.8389634999912,2006.7904749999288,2006.7871168998536,None,0.6430097001139075,,,,,,,,,,,,,,,,,,,,,,,,,,,,,,,1102,001,2,1,2022_Feb_10_1602,task_complete_blocked_LC_updated,2021.2.3,237.7793307522167,
,,,O,2,,,,,,,,,,,,,,,,,,,,,,,27,1,55,1,,,,,,,,,,,,,,,,,,,,,,,,,,,,,,,,,,,,,,,,,,,,,,,,,,,,,,,,,,,,,,,,,,,,,,,,,,,,,,,,,,,,,,,,,,,,,,,2006.839115299983,2007.7884596998338,2,1,2006.839115299983,2007.7884596998338,2007.785360599868,None,0.42664080020040274,,,,,,,,,,,,,,,,,,,,,,,,,,,,,,,1102,001,2,1,2022_Feb_10_1602,task_complete_blocked_LC_updated,2021.2.3,237.7793307522167,
,,,X,1,,,,,,,,,,,,,,,,,,,,,,,28,0,56,0,,,,,,,,,,,,,,,,,,,,,,,,,,,,,,,,,,,,,,,,,,,,,,,,,,,,,,,,,,,,,,,,,,,,,,,,,,,,,,,,,,,,,,,,,,,,,,,2007.8394685999956,2008.793191399891,1,1,2007.8394685999956,2008.793191399891,2008.7881664000452,None,0.5335886999964714,,,,,,,,,,,,,,,,,,,,,,,,,,,,,,,1102,001,2,1,2022_Feb_10_1602,task_complete_blocked_LC_updated,2021.2.3,237.7793307522167,
,,,O,2,,,,,,,,,,,,,,,,,,,,,,,28,1,57,1,,,,,,,,,,,,,,,,,,,,,,,,,,,,,,,,,,,,,,,,,,,,,,,,,,,,,,,,,,,,,,,,,,,,,,,,,,,,,,,,,,,,,,,,,,,,,,,2008.838267999934,2009.7894724998623,2,1,2008.838267999934,2009.7894724998623,2009.7869163998403,None,0.3679195998702198,,,,,,,,,,,,,,,,,,,,,,,,,,,,,,,1102,001,2,1,2022_Feb_10_1602,task_complete_blocked_LC_updated,2021.2.3,237.7793307522167,
,,,O,2,,,,,,,,,,,,,,,,,,,,,,,29,0,58,1,,,,,,,,,,,,,,,,,,,,,,,,,,,,,,,,,,,,,,,,,,,,,,,,,,,,,,,,,,,,,,,,,,,,,,,,,,,,,,,,,,,,,,,,,,,,,,,2009.8356455999892,2010.78491139994,2,1,2009.8356455999892,2010.78491139994,2010.7813253998756,None,0.28744899993762374,,,,,,,,,,,,,,,,,,,,,,,,,,,,,,,1102,001,2,1,2022_Feb_10_1602,task_complete_blocked_LC_updated,2021.2.3,237.7793307522167,
,,,X,1,,,,,,,,,,,,,,,,,,,,,,,29,1,59,0,,,,,,,,,,,,,,,,,,,,,,,,,,,,,,,,,,,,,,,,,,,,,,,,,,,,,,,,,,,,,,,,,,,,,,,,,,,,,,,,,,,,,,,,,,,,,,,2010.8368643999565,2011.7856731000356,1,1,2010.8368643999565,2011.7856731000356,2011.782937400043,2010.8368643999565,0.2771540000103414,,,,,,,,,,,,,,,,,,,,,,,,,,,,,,,1102,001,2,1,2022_Feb_10_1602,task_complete_blocked_LC_updated,2021.2.3,237.7793307522167,
,,,,,,,,,,,,,,,,,,,,,,,,,,,,,,,,,,,,,,,,,,,,,,,,,,,,,,,,,,,,,,,,,,,,,,,,,,,,,,,,,,,,,,,,,,,,,,,,,,,,,,,,,,,,,,,,,,,,,,,,,,,,,,,,,,,,,,2011.8355773000512,None,space,28.145077199907973,2016.8377222998533,None,,,,,,,,,,,,,,,,,,,,,,,,,1102,001,2,1,2022_Feb_10_1602,task_complete_blocked_LC_updated,2021.2.3,237.7793307522167,
,,,,,,,,,,,,,,,,,,,,,,,,,,,,,,,,,,,,,,,,,,,,,,,,,,,,,,,,,,,,,,,,,,,,,,,,,,,,,,,,,,,,,,,,,,,,,,,2044.9921470000409,None,5,13.133932800032198,2044.9921470000409,None,,,,,,,,,,,,,,,,,,,,,,,,,,,,,,,,,,,,,,,,2016.8377222998533,None,,,,,,,,,,,,,,,,,,,,,,,1102,001,2,1,2022_Feb_10_1602,task_complete_blocked_LC_updated,2021.2.3,237.7793307522167,
stimulus_images/ALOAFBR4.jpg,SPACE,0,,,,,,,,,,,,,,,,,,,,,,,,,,,,,0,0,0,8,,,,,,,,,,,,,,,,,,,,,,,,,,,,,,,,,,,,,,,,,,,,,,,,,,,,,,,,,,,,,,,,,,,3.200024366378784e-06,2058.1543727000244,2060.1542550998274,2058.1543727000244,2060.1542550998274,2059.1508724000305,2060.150703500025,2059.1508724000305,2060.150703500025,2060.150703500025,None,5.987711300142109,2064.1386045999825,None,2064.1386045999825,None,4,0.6973830999340862,2064.1386045999825,None,2070.1375504999887,None,,,,,,,,,,,,,,,,,,,,,,,,,,,,,,,,,,,,,,,,,,1102,001,2,1,2022_Feb_10_1602,task_complete_blocked_LC_updated,2021.2.3,237.7793307522167,
stimulus_images/Ahandbag50.jpg,SPACE,1,,,,,,,,,,,,,,,,,,,,,,,,,,,,,0,1,1,7,,,,,,,,,,,,,,,,,,,,,,,,,,,,,,,,,,,,,,,,,,,,,,,,,,,,,,,,,,,,,,,,,,,13.98874090006575,2072.1481979999226,2074.1568718999624,2072.1481979999226,2074.1568718999624,2073.1464716999326,2074.1568718999624,2073.1464716999326,2074.1568718999624,2074.1519689999986,None,19.991785500198603,2078.1447705000173,None,2078.1447705000173,None,4,1.3963015999179333,2078.1447705000173,None,2084.148794000037,None,,,,,,,,,,,,,,,,,,,,,,,,,,,,,,,,,,,,,,,,,,1102,001,2,1,2022_Feb_10_1602,task_complete_blocked_LC_updated,2021.2.3,237.7793307522167,
stimulus_images/Abasket108.jpg,SPACE,0,,,,,,,,,,,,,,,,,,,,,,,,,,,,,0,2,2,1,,,,,,,,,,,,,,,,,,,,,,,,,,,,,,,,,,,,,,,,,,,,,,,,,,,,,,,,,,,,,,,,,,,28.001430900068954,2086.1616352000274,2088.16043119994,2086.1616352000274,2088.16043119994,2087.1590986000374,2088.16043119994,2087.1590986000374,2088.16043119994,2088.1572874998674,None,34.00409040017985,2092.1554743000306,None,2092.1554743000306,None,2,1.8056442998349667,2092.1554743000306,None,2098.1523596998304,None,,,,,,,,,,,,,,,,,,,,,,,,,,,,,,,,,,,,,,,,,,1102,001,2,1,2022_Feb_10_1602,task_complete_blocked_LC_updated,2021.2.3,237.7793307522167,
stimulus_images/Ababybottle15.jpg,SPACE,0,,,,,,,,,,,,,,,,,,,,,,,,,,,,,0,3,3,0,,,,,,,,,,,,,,,,,,,,,,,,,,,,,,,,,,,,,,,,,,,,,,,,,,,,,,,,,,,,,,,,,,,43.00610230001621,2101.165640400024,2103.1682943999767,2101.165640400024,2103.1682943999767,2102.164521300001,2103.1640703999437,2102.164521300001,2103.1640703999437,2103.1640703999437,None,49.00824910006486,2107.159591099946,None,2107.159591099946,None,3,0.6736896000802517,2107.159591099946,None,2113.1592432998586,None,,,,,,,,,,,,,,,,,,,,,,,,,,,,,,,,,,,,,,,,,,1102,001,2,1,2022_Feb_10_1602,task_complete_blocked_LC_updated,2021.2.3,237.7793307522167,
stimulus_images/ACUTBOAR2.jpg,SPACE,0,,,,,,,,,,,,,,,,,,,,,,,,,,,,,0,4,4,5,,,,,,,,,,,,,,,,,,,,,,,,,,,,,,,,,,,,,,,,,,,,,,,,,,,,,,,,,,,,,,,,,,,57.010074300225824,2115.1640059000347,2117.168474999955,2115.1640059000347,2117.168474999955,2116.160143899964,2117.1642298998777,2116.160143899964,2117.1642298998777,2117.1642298998777,None,63.01365760015324,2121.1673097000457,None,2121.1673097000457,None,4,1.4807399997953326,2121.1673097000457,None,2127.1630377999973,None,,,,,,,,,,,,,,,,,,,,,,,,,,,,,,,,,,,,,,,,,,1102,001,2,1,2022_Feb_10_1602,task_complete_blocked_LC_updated,2021.2.3,237.7793307522167,
stimulus_images/Aboardgame6.jpg,SPACE,0,,,,,,,,,,,,,,,,,,,,,,,,,,,,,0,5,5,2,,,,,,,,,,,,,,,,,,,,,,,,,,,,,,,,,,,,,,,,,,,,,,,,,,,,,,,,,,,,,,,,,,,72.0141125000082,2130.1741200999822,2132.1760777998716,2130.1741200999822,2132.1760777998716,2131.1725957999006,2132.1731437998824,2131.1725957999006,2132.1731437998824,2132.1731437998824,None,78.01685720006935,2136.1674850999843,None,2136.1674850999843,None,3,0.9546891001518816,2136.1674850999843,None,2142.1689694998786,None,,,,,,,,,,,,,,,,,,,,,,,,,,,,,,,,,,,,,,,,,,1102,001,2,1,2022_Feb_10_1602,task_complete_blocked_LC_updated,2021.2.3,237.7793307522167,
stimulus_images/Acactusplant.jpg,SPACE,1,,,,,,,,,,,,,,,,,,,,,,,,,,,,,0,6,6,3,,,,,,,,,,,,,,,,,,,,,,,,,,,,,,,,,,,,,,,,,,,,,,,,,,,,,,,,,,,,,,,,,,,87.022721900139,2145.1828032999765,2147.186467600055,2145.1828032999765,2147.186467600055,2146.180179900024,2147.186467600055,2146.180179900024,2147.186467600055,2147.186467600055,None,93.02676950022578,2151.177964600036,None,2151.177964600036,None,4,1.1081149000674486,2151.177964600036,None,2157.1776169999503,None,,,,,,,,,,,,,,,,,,,,,,,,,,,,,,,,,,,,,,,,,,1102,001,2,1,2022_Feb_10_1602,task_complete_blocked_LC_updated,2021.2.3,237.7793307522167,
stimulus_images/Aplantinpot2.jpg,SPACE,0,,,,,,,,,,,,,,,,,,,,,,,,,,,,,0,7,7,9,,,,,,,,,,,,,,,,,,,,,,,,,,,,,,,,,,,,,,,,,,,,,,,,,,,,,,,,,,,,,,,,,,,100.03108590003103,2158.184094700031,2160.1871474999934,2158.184094700031,2160.1871474999934,2159.181554599898,2160.1871474999934,2159.181554599898,2160.1871474999934,2160.181664600037,None,106.03678400022909,2164.190381999826,None,2164.190381999826,None,4,1.923076700186357,2164.190381999826,None,2170.1899677999318,None,,,,,,,,,,,,,,,,,,,,,,,,,,,,,,,,,,,,,,,,,,1102,001,2,1,2022_Feb_10_1602,task_complete_blocked_LC_updated,2021.2.3,237.7793307522167,
stimulus_images/Aflower102.jpg,SPACE,0,,,,,,,,,,,,,,,,,,,,,,,,,,,,,0,8,8,6,,,,,,,,,,,,,,,,,,,,,,,,,,,,,,,,,,,,,,,,,,,,,,,,,,,,,,,,,,,,,,,,,,,113.0435455001425,2171.2026847999077,2173.201567400014,2171.2026847999077,2173.201567400014,2172.2036786000244,2173.201567400014,2172.2036786000244,2173.201567400014,2173.201567400014,None,119.04625420016237,2177.196761399973,None,2177.196761399973,None,3,2.176226200070232,2177.196761399973,None,2183.198928399943,None,,,,,,,,,,,,,,,,,,,,,,,,,,,,,,,,,,,,,,,,,,1102,001,2,1,2022_Feb_10_1602,task_complete_blocked_LC_updated,2021.2.3,237.7793307522167,
stimulus_images/Achampagnebo2.jpg,SPACE,0,,,,,,,,,,,,,,,,,,,,,,,,,,,,,0,9,9,4,,,,,,,,,,,,,,,,,,,,,,,,,,,,,,,,,,,,,,,,,,,,,,,,,,,,,,,,,,,,,,,,,,,126.051263500005,2184.21596569987,2186.216535799904,2184.21596569987,2186.216535799904,2185.2130715998355,2186.212647699984,2185.2130715998355,2186.212647699984,2186.212647699984,None,132.0546237002127,2190.2051678998396,None,2190.2051678998396,None,4,1.7778835000935942,2190.2051678998396,None,2196.2024163999595,None,,,,,,,,,,,,,,,,,,,,,,,,,,,,,,,,,,,,,,,,,,1102,001,2,1,2022_Feb_10_1602,task_complete_blocked_LC_updated,2021.2.3,237.7793307522167,
stimulus_images/AAEROBENC.jpg,SPACE,0,,,,,,,,,,,,,,,,,,,,,,,,,,,,,,,,,0,0,0,4,,,,,,,,,,,,,,,,,,,,,,,,,,,,,,,,,,,,,,,,,,,,,,,,,,,,,,,,,,,,,,,140.06382390018553,2198.2231707000174,2200.2254752998706,2198.2231707000174,2200.2254752998706,2199.2177250999957,2200.2219996999484,2199.2177250999957,2200.2219996999484,2200.2219996999484,None,146.05989380017854,2204.2118456999306,None,2204.2118456999306,None,2,1.2153555999975652,2204.2118456999306,None,2210.2097014000174,None,,,,,,,,,,,,,,,,,,,,,,,,,,,,,,,,,,,,,,,,,,1102,001,2,1,2022_Feb_10_1602,task_complete_blocked_LC_updated,2021.2.3,237.7793307522167,
stimulus_images/ASEWINGT4.jpg,SPACE,0,,,,,,,,,,,,,,,,,,,,,,,,,,,,,,,,,0,1,1,0,,,,,,,,,,,,,,,,,,,,,,,,,,,,,,,,,,,,,,,,,,,,,,,,,,,,,,,,,,,,,,,154.06108830007724,2212.2219330000225,2214.2232737999875,2212.2219330000225,2214.2232737999875,2213.2178346000146,2214.2232737999875,2213.2178346000146,2214.2232737999875,2214.2170434000436,None,160.06740800011903,2218.21730150003,None,2218.21730150003,None,2,1.7946793001610786,2218.21730150003,None,2224.2223439998925,None,,,,,,,,,,,,,,,,,,,,,,,,,,,,,,,,,,,,,,,,,,1102,001,2,1,2022_Feb_10_1602,task_complete_blocked_LC_updated,2021.2.3,237.7793307522167,
stimulus_images/A_teabag.jpg,SPACE,1,,,,,,,,,,,,,,,,,,,,,,,,,,,,,,,,,0,2,2,3,,,,,,,,,,,,,,,,,,,,,,,,,,,,,,,,,,,,,,,,,,,,,,,,,,,,,,,,,,,,,,,168.07309860014357,2226.2324274999555,2228.2338033998385,2226.2324274999555,2228.2338033998385,2227.2266265000217,2228.230031499872,2227.2266265000217,2228.230031499872,2228.230031499872,None,174.0757657000795,2232.2267122999765,None,2232.2267122999765,None,4,0.9952334999106824,2232.2267122999765,None,2238.2276675999165,None,,,,,,,,,,,,,,,,,,,,,,,,,,,,,,,,,,,,,,,,,,1102,001,2,1,2022_Feb_10_1602,task_complete_blocked_LC_updated,2021.2.3,237.7793307522167,
stimulus_images/AANTFRYI2.jpg,SPACE,0,,,,,,,,,,,,,,,,,,,,,,,,,,,,,,,,,0,3,3,5,,,,,,,,,,,,,,,,,,,,,,,,,,,,,,,,,,,,,,,,,,,,,,,,,,,,,,,,,,,,,,,182.08147520013154,2240.2408747000154,2242.2429243999068,2240.2408747000154,2242.2429243999068,2241.2358426998835,2242.2353272000328,2241.2358426998835,2242.2353272000328,2242.2353272000328,None,188.08417230006307,2246.2413645000197,None,2246.2413645000197,None,3,1.9126236999873072,2246.2413645000197,None,2252.2384134000167,None,,,,,,,,,,,,,,,,,,,,,,,,,,,,,,,,,,,,,,,,,,1102,001,2,1,2022_Feb_10_1602,task_complete_blocked_LC_updated,2021.2.3,237.7793307522167,
stimulus_images/Awatch28.jpg,SPACE,1,,,,,,,,,,,,,,,,,,,,,,,,,,,,,,,,,0,4,4,1,,,,,,,,,,,,,,,,,,,,,,,,,,,,,,,,,,,,,,,,,,,,,,,,,,,,,,,,,,,,,,,195.08993100002408,2253.2494387000334,2255.247882100055,2253.2494387000334,2255.247882100055,2254.2441394999623,2255.24445849983,2254.2441394999623,2255.24445849983,2255.24445849983,None,201.09376200009137,2259.245073799975,None,2259.245073799975,None,2,1.1291563999839127,2259.245073799975,None,2265.2501054999884,None,,,,,,,,,,,,,,,,,,,,,,,,,,,,,,,,,,,,,,,,,,1102,001,2,1,2022_Feb_10_1602,task_complete_blocked_LC_updated,2021.2.3,237.7793307522167,
stimulus_images/Abananasundae.jpg,SPACE,1,,,,,,,,,,,,,,,,,,,,,,,,,,,,,,,,,0,5,5,7,,,,,,,,,,,,,,,,,,,,,,,,,,,,,,,,,,,,,,,,,,,,,,,,,,,,,,,,,,,,,,,209.1031718000304,2267.2560894000344,2269.2600632999092,2267.2560894000344,2269.2600632999092,2268.252781299874,2269.2600632999092,2268.252781299874,2269.2600632999092,2269.2524949000217,None,215.1027635000646,2273.252972899936,None,2273.252972899936,None,2,1.4872192998882383,2273.252972899936,None,2279.256737599848,None,,,,,,,,,,,,,,,,,,,,,,,,,,,,,,,,,,,,,,,,,,1102,001,2,1,2022_Feb_10_1602,task_complete_blocked_LC_updated,2021.2.3,237.7793307522167,
stimulus_images/Abrooch100.jpg,SPACE,0,,,,,,,,,,,,,,,,,,,,,,,,,,,,,,,,,0,6,6,9,,,,,,,,,,,,,,,,,,,,,,,,,,,,,,,,,,,,,,,,,,,,,,,,,,,,,,,,,,,,,,,224.10885430010967,2282.268642799929,2284.2698029999156,2282.268642799929,2284.2698029999156,2283.270733800018,2284.2698029999156,2283.270733800018,2284.2698029999156,2284.265959299868,None,230.1142590001691,2288.2655537999235,None,2288.2655537999235,None,4,0.8516509998589754,2288.2655537999235,None,2294.2657158998773,None,,,,,,,,,,,,,,,,,,,,,,,,,,,,,,,,,,,,,,,,,,1102,001,2,1,2022_Feb_10_1602,task_complete_blocked_LC_updated,2021.2.3,237.7793307522167,
stimulus_images/AARTPLANT.jpg,SPACE,0,,,,,,,,,,,,,,,,,,,,,,,,,,,,,,,,,0,7,7,6,,,,,,,,,,,,,,,,,,,,,,,,,,,,,,,,,,,,,,,,,,,,,,,,,,,,,,,,,,,,,,,239.11971930018626,2297.279539800016,2299.2826908999123,2297.279539800016,2299.2826908999123,2298.2834932999685,2299.2859187999275,2298.2834932999685,2299.2859187999275,2299.2826908999123,None,245.12219610018656,2303.2725608998444,None,2303.2725608998444,None,3,0.3613760999869555,2303.2725608998444,None,2309.2746625000145,None,,,,,,,,,,,,,,,,,,,,,,,,,,,,,,,,,,,,,,,,,,1102,001,2,1,2022_Feb_10_1602,task_complete_blocked_LC_updated,2021.2.3,237.7793307522167,
stimulus_images/ABISHOP2.jpg,SPACE,0,,,,,,,,,,,,,,,,,,,,,,,,,,,,,,,,,0,8,8,8,,,,,,,,,,,,,,,,,,,,,,,,,,,,,,,,,,,,,,,,,,,,,,,,,,,,,,,,,,,,,,,254.12730180006474,2312.27973199985,2314.2808769999538,2312.27973199985,2314.2808769999538,2313.280766099924,2314.2808769999538,2313.280766099924,2314.2808769999538,2314.2782280999236,None,260.13157130009495,2318.2819421000313,None,2318.2819421000313,None,2,1.2462571000214666,2318.2819421000313,None,2324.282728299964,None,,,,,,,,,,,,,,,,,,,,,,,,,,,,,,,,,,,,,,,,,,1102,001,2,1,2022_Feb_10_1602,task_complete_blocked_LC_updated,2021.2.3,237.7793307522167,
stimulus_images/pencil-a.jpg,SPACE,0,,,,,,,,,,,,,,,,,,,,,,,,,,,,,,,,,0,9,9,2,,,,,,,,,,,,,,,,,,,,,,,,,,,,,,,,,,,,,,,,,,,,,,,,,,,,,,,,,,,,,,,267.13619290012866,2325.2948793999385,2327.2934614999685,2325.2948793999385,2327.2934614999685,2326.2895507998765,2327.2904085000046,2326.2895507998765,2327.2904085000046,2327.2904085000046,None,273.1392253001686,2331.2905810000375,None,2331.2905810000375,None,4,0.8245362001471221,2331.2905810000375,None,2337.2884741998278,None,,,,,,,,,,,,,,,,,,,,,,,,,,,,,,,,,,,,,,,,,,1102,001,2,1,2022_Feb_10_1602,task_complete_blocked_LC_updated,2021.2.3,237.7793307522167,
,,,X,1,,,,,,,,,,,,,,,,,,,,,,,,,,,,,,,,,,,0,0,0,0,,,,,,,,,,,,,,,,,,,,,,,,,,,,,,,,,,,,,,,,,,,,,,,,,,,,,,,,,,,,,,,,,,,,,,,,,,,,,,,,,2338.292135299882,None,2341.2990166998934,2342.2509502000175,1,1,2341.2990166998934,2342.2509502000175,2342.2478040999267,None,0.7504166001453996,,,,,,,,,,,,,,,,,,,,,,,,,,,,,,,1102,001,2,1,2022_Feb_10_1602,task_complete_blocked_LC_updated,2021.2.3,237.7793307522167,
,,,O,2,,,,,,,,,,,,,,,,,,,,,,,,,,,,,,,,,,,0,1,1,1,,,,,,,,,,,,,,,,,,,,,,,,,,,,,,,,,,,,,,,,,,,,,,,,,,,,,,,,,,,,,,,,,,,,,,,,,,,,,,,,,,,2342.294390199939,2343.249047399964,2,1,2342.294390199939,2343.249047399964,2343.2450474998914,None,0.4548198999837041,,,,,,,,,,,,,,,,,,,,,,,,,,,,,,,1102,001,2,1,2022_Feb_10_1602,task_complete_blocked_LC_updated,2021.2.3,237.7793307522167,
,,,O,2,,,,,,,,,,,,,,,,,,,,,,,,,,,,,,,,,,,1,0,2,1,,,,,,,,,,,,,,,,,,,,,,,,,,,,,,,,,,,,,,,,,,,,,,,,,,,,,,,,,,,,,,,,,,,,,,,,,,,,,,,,,,,2343.293654500041,2344.2469760999084,2,1,2343.293654500041,2344.2469760999084,2344.238504000008,None,0.716725200181827,,,,,,,,,,,,,,,,,,,,,,,,,,,,,,,1102,001,2,1,2022_Feb_10_1602,task_complete_blocked_LC_updated,2021.2.3,237.7793307522167,
,,,X,1,,,,,,,,,,,,,,,,,,,,,,,,,,,,,,,,,,,1,1,3,0,,,,,,,,,,,,,,,,,,,,,,,,,,,,,,,,,,,,,,,,,,,,,,,,,,,,,,,,,,,,,,,,,,,,,,,,,,,,,,,,,,,2344.293805199908,2345.247827799991,1,1,2344.293805199908,2345.247827799991,2345.2437684999313,2344.293805199908,0.32705669989809394,,,,,,,,,,,,,,,,,,,,,,,,,,,,,,,1102,001,2,1,2022_Feb_10_1602,task_complete_blocked_LC_updated,2021.2.3,237.7793307522167,
,,,X,1,,,,,,,,,,,,,,,,,,,,,,,,,,,,,,,,,,,2,0,4,0,,,,,,,,,,,,,,,,,,,,,,,,,,,,,,,,,,,,,,,,,,,,,,,,,,,,,,,,,,,,,,,,,,,,,,,,,,,,,,,,,,,2345.293678399874,2346.242363499943,1,1,2345.293678399874,2346.242363499943,2346.238875800045,None,0.32920429995283484,,,,,,,,,,,,,,,,,,,,,,,,,,,,,,,1102,001,2,1,2022_Feb_10_1602,task_complete_blocked_LC_updated,2021.2.3,237.7793307522167,
,,,O,2,,,,,,,,,,,,,,,,,,,,,,,,,,,,,,,,,,,2,1,5,1,,,,,,,,,,,,,,,,,,,,,,,,,,,,,,,,,,,,,,,,,,,,,,,,,,,,,,,,,,,,,,,,,,,,,,,,,,,,,,,,,,,2346.2924247998744,2347.243864599848,2,1,2346.2924247998744,2347.243864599848,2347.2401089998893,2346.2924247998744,0.3196020000614226,,,,,,,,,,,,,,,,,,,,,,,,,,,,,,,1102,001,2,1,2022_Feb_10_1602,task_complete_blocked_LC_updated,2021.2.3,237.7793307522167,
,,,O,2,,,,,,,,,,,,,,,,,,,,,,,,,,,,,,,,,,,3,0,6,1,,,,,,,,,,,,,,,,,,,,,,,,,,,,,,,,,,,,,,,,,,,,,,,,,,,,,,,,,,,,,,,,,,,,,,,,,,,,,,,,,,,2347.291375099914,2348.2406216999516,2,1,2347.291375099914,2348.2406216999516,2348.2406216999516,2347.291375099914,0.3941219998523593,,,,,,,,,,,,,,,,,,,,,,,,,,,,,,,1102,001,2,1,2022_Feb_10_1602,task_complete_blocked_LC_updated,2021.2.3,237.7793307522167,
,,,X,1,,,,,,,,,,,,,,,,,,,,,,,,,,,,,,,,,,,3,1,7,0,,,,,,,,,,,,,,,,,,,,,,,,,,,,,,,,,,,,,,,,,,,,,,,,,,,,,,,,,,,,,,,,,,,,,,,,,,,,,,,,,,,2348.2972796999384,2349.249530199915,1,1,2348.2972796999384,2349.249530199915,2349.2413850999437,2348.2972796999384,0.40399239980615675,,,,,,,,,,,,,,,,,,,,,,,,,,,,,,,1102,001,2,1,2022_Feb_10_1602,task_complete_blocked_LC_updated,2021.2.3,237.7793307522167,
,,,X,1,,,,,,,,,,,,,,,,,,,,,,,,,,,,,,,,,,,4,0,8,0,,,,,,,,,,,,,,,,,,,,,,,,,,,,,,,,,,,,,,,,,,,,,,,,,,,,,,,,,,,,,,,,,,,,,,,,,,,,,,,,,,,2349.293263199972,2350.2416934999637,1,1,2349.293263199972,2350.2416934999637,2350.2384548999835,None,0.38867429993115366,,,,,,,,,,,,,,,,,,,,,,,,,,,,,,,1102,001,2,1,2022_Feb_10_1602,task_complete_blocked_LC_updated,2021.2.3,237.7793307522167,
,,,O,2,,,,,,,,,,,,,,,,,,,,,,,,,,,,,,,,,,,4,1,9,1,,,,,,,,,,,,,,,,,,,,,,,,,,,,,,,,,,,,,,,,,,,,,,,,,,,,,,,,,,,,,,,,,,,,,,,,,,,,,,,,,,,2350.2924939999357,2351.245628600009,2,1,2350.2924939999357,2351.245628600009,2351.242110299878,2350.2924939999357,0.2737062999513,,,,,,,,,,,,,,,,,,,,,,,,,,,,,,,1102,001,2,1,2022_Feb_10_1602,task_complete_blocked_LC_updated,2021.2.3,237.7793307522167,
,,,O,2,,,,,,,,,,,,,,,,,,,,,,,,,,,,,,,,,,,5,0,10,1,,,,,,,,,,,,,,,,,,,,,,,,,,,,,,,,,,,,,,,,,,,,,,,,,,,,,,,,,,,,,,,,,,,,,,,,,,,,,,,,,,,2351.2942838999443,2352.248451499967,2,1,2351.2942838999443,2352.248451499967,2352.2413876999635,None,0.39115460007451475,,,,,,,,,,,,,,,,,,,,,,,,,,,,,,,1102,001,2,1,2022_Feb_10_1602,task_complete_blocked_LC_updated,2021.2.3,237.7793307522167,
,,,X,1,,,,,,,,,,,,,,,,,,,,,,,,,,,,,,,,,,,5,1,11,0,,,,,,,,,,,,,,,,,,,,,,,,,,,,,,,,,,,,,,,,,,,,,,,,,,,,,,,,,,,,,,,,,,,,,,,,,,,,,,,,,,,2352.295829999959,2353.2447481998242,1,1,2352.295829999959,2353.2447481998242,2353.2447481998242,2352.295829999959,0.5823182999156415,,,,,,,,,,,,,,,,,,,,,,,,,,,,,,,1102,001,2,1,2022_Feb_10_1602,task_complete_blocked_LC_updated,2021.2.3,237.7793307522167,
,,,X,1,,,,,,,,,,,,,,,,,,,,,,,,,,,,,,,,,,,6,0,12,0,,,,,,,,,,,,,,,,,,,,,,,,,,,,,,,,,,,,,,,,,,,,,,,,,,,,,,,,,,,,,,,,,,,,,,,,,,,,,,,,,,,2353.2940544998273,2354.2467998999637,1,1,2353.2940544998273,2354.2467998999637,2354.243307699915,None,0.3350380000192672,,,,,,,,,,,,,,,,,,,,,,,,,,,,,,,1102,001,2,1,2022_Feb_10_1602,task_complete_blocked_LC_updated,2021.2.3,237.7793307522167,
,,,O,2,,,,,,,,,,,,,,,,,,,,,,,,,,,,,,,,,,,6,1,13,1,,,,,,,,,,,,,,,,,,,,,,,,,,,,,,,,,,,,,,,,,,,,,,,,,,,,,,,,,,,,,,,,,,,,,,,,,,,,,,,,,,,2354.2960651998874,2355.245919399895,2,1,2354.2960651998874,2355.245919399895,2355.2430582998786,None,0.2951900002080947,,,,,,,,,,,,,,,,,,,,,,,,,,,,,,,1102,001,2,1,2022_Feb_10_1602,task_complete_blocked_LC_updated,2021.2.3,237.7793307522167,
,,,O,2,,,,,,,,,,,,,,,,,,,,,,,,,,,,,,,,,,,7,0,14,1,,,,,,,,,,,,,,,,,,,,,,,,,,,,,,,,,,,,,,,,,,,,,,,,,,,,,,,,,,,,,,,,,,,,,,,,,,,,,,,,,,,2355.29373949999,2356.247435499914,2,1,2355.29373949999,2356.247435499914,2356.243861799827,None,0.2774883999954909,,,,,,,,,,,,,,,,,,,,,,,,,,,,,,,1102,001,2,1,2022_Feb_10_1602,task_complete_blocked_LC_updated,2021.2.3,237.7793307522167,
,,,X,1,,,,,,,,,,,,,,,,,,,,,,,,,,,,,,,,,,,7,1,15,0,,,,,,,,,,,,,,,,,,,,,,,,,,,,,,,,,,,,,,,,,,,,,,,,,,,,,,,,,,,,,,,,,,,,,,,,,,,,,,,,,,,2356.295353200054,2357.2495409999974,1,1,2356.295353200054,2357.2495409999974,2357.2454774000216,None,0.25282740010879934,,,,,,,,,,,,,,,,,,,,,,,,,,,,,,,1102,001,2,1,2022_Feb_10_1602,task_complete_blocked_LC_updated,2021.2.3,237.7793307522167,
,,,O,2,,,,,,,,,,,,,,,,,,,,,,,,,,,,,,,,,,,8,0,16,1,,,,,,,,,,,,,,,,,,,,,,,,,,,,,,,,,,,,,,,,,,,,,,,,,,,,,,,,,,,,,,,,,,,,,,,,,,,,,,,,,,,2357.2954220999964,2358.2449043998495,2,1,2357.2954220999964,2358.2449043998495,2358.24127150001,None,0.6155338000971824,,,,,,,,,,,,,,,,,,,,,,,,,,,,,,,1102,001,2,1,2022_Feb_10_1602,task_complete_blocked_LC_updated,2021.2.3,237.7793307522167,
,,,X,1,,,,,,,,,,,,,,,,,,,,,,,,,,,,,,,,,,,8,1,17,0,,,,,,,,,,,,,,,,,,,,,,,,,,,,,,,,,,,,,,,,,,,,,,,,,,,,,,,,,,,,,,,,,,,,,,,,,,,,,,,,,,,2358.294719700003,2359.2452358000446,1,1,2358.294719700003,2359.2452358000446,2359.242014199961,None,0.3794870001729578,,,,,,,,,,,,,,,,,,,,,,,,,,,,,,,1102,001,2,1,2022_Feb_10_1602,task_complete_blocked_LC_updated,2021.2.3,237.7793307522167,
,,,O,2,,,,,,,,,,,,,,,,,,,,,,,,,,,,,,,,,,,9,0,18,1,,,,,,,,,,,,,,,,,,,,,,,,,,,,,,,,,,,,,,,,,,,,,,,,,,,,,,,,,,,,,,,,,,,,,,,,,,,,,,,,,,,2359.295356599847,2360.247970999917,2,1,2359.295356599847,2360.247970999917,2360.2442725000437,None,0.3967830000910908,,,,,,,,,,,,,,,,,,,,,,,,,,,,,,,1102,001,2,1,2022_Feb_10_1602,task_complete_blocked_LC_updated,2021.2.3,237.7793307522167,
,,,X,1,,,,,,,,,,,,,,,,,,,,,,,,,,,,,,,,,,,9,1,19,0,,,,,,,,,,,,,,,,,,,,,,,,,,,,,,,,,,,,,,,,,,,,,,,,,,,,,,,,,,,,,,,,,,,,,,,,,,,,,,,,,,,2360.2964884999674,2361.2470698000398,1,1,2360.2964884999674,2361.2470698000398,2361.2435452998616,None,0.24454980017617345,,,,,,,,,,,,,,,,,,,,,,,,,,,,,,,1102,001,2,1,2022_Feb_10_1602,task_complete_blocked_LC_updated,2021.2.3,237.7793307522167,
,,,O,2,,,,,,,,,,,,,,,,,,,,,,,,,,,,,,,,,,,10,0,20,1,,,,,,,,,,,,,,,,,,,,,,,,,,,,,,,,,,,,,,,,,,,,,,,,,,,,,,,,,,,,,,,,,,,,,,,,,,,,,,,,,,,2361.2945208998863,2362.2459217000287,2,1,2361.2945208998863,2362.2459217000287,2362.241844399832,None,0.5015247000847012,,,,,,,,,,,,,,,,,,,,,,,,,,,,,,,1102,001,2,1,2022_Feb_10_1602,task_complete_blocked_LC_updated,2021.2.3,237.7793307522167,
,,,X,1,,,,,,,,,,,,,,,,,,,,,,,,,,,,,,,,,,,10,1,21,0,,,,,,,,,,,,,,,,,,,,,,,,,,,,,,,,,,,,,,,,,,,,,,,,,,,,,,,,,,,,,,,,,,,,,,,,,,,,,,,,,,,2362.2948878000025,2363.245130599942,1,1,2362.2948878000025,2363.245130599942,2363.2427997998893,None,0.24552029999904335,,,,,,,,,,,,,,,,,,,,,,,,,,,,,,,1102,001,2,1,2022_Feb_10_1602,task_complete_blocked_LC_updated,2021.2.3,237.7793307522167,
,,,O,2,,,,,,,,,,,,,,,,,,,,,,,,,,,,,,,,,,,11,0,22,1,,,,,,,,,,,,,,,,,,,,,,,,,,,,,,,,,,,,,,,,,,,,,,,,,,,,,,,,,,,,,,,,,,,,,,,,,,,,,,,,,,,2363.294566700002,2364.2449441000354,2,1,2363.294566700002,2364.2449441000354,2364.241787099978,None,0.46187710016965866,,,,,,,,,,,,,,,,,,,,,,,,,,,,,,,1102,001,2,1,2022_Feb_10_1602,task_complete_blocked_LC_updated,2021.2.3,237.7793307522167,
,,,X,1,,,,,,,,,,,,,,,,,,,,,,,,,,,,,,,,,,,11,1,23,0,,,,,,,,,,,,,,,,,,,,,,,,,,,,,,,,,,,,,,,,,,,,,,,,,,,,,,,,,,,,,,,,,,,,,,,,,,,,,,,,,,,2364.2950194999576,2365.2480778000318,1,1,2364.2950194999576,2365.2480778000318,2365.2442735000513,None,0.2792038000188768,,,,,,,,,,,,,,,,,,,,,,,,,,,,,,,1102,001,2,1,2022_Feb_10_1602,task_complete_blocked_LC_updated,2021.2.3,237.7793307522167,
,,,O,2,,,,,,,,,,,,,,,,,,,,,,,,,,,,,,,,,,,12,0,24,1,,,,,,,,,,,,,,,,,,,,,,,,,,,,,,,,,,,,,,,,,,,,,,,,,,,,,,,,,,,,,,,,,,,,,,,,,,,,,,,,,,,2365.294558299938,2366.2461983999237,2,1,2365.294558299938,2366.2461983999237,2366.2427307998296,None,0.5045823000837117,,,,,,,,,,,,,,,,,,,,,,,,,,,,,,,1102,001,2,1,2022_Feb_10_1602,task_complete_blocked_LC_updated,2021.2.3,237.7793307522167,
,,,X,1,,,,,,,,,,,,,,,,,,,,,,,,,,,,,,,,,,,12,1,25,0,,,,,,,,,,,,,,,,,,,,,,,,,,,,,,,,,,,,,,,,,,,,,,,,,,,,,,,,,,,,,,,,,,,,,,,,,,,,,,,,,,,2366.2951450999826,2367.246421399992,1,1,2366.2951450999826,2367.246421399992,2367.2434987998568,None,0.29869350022636354,,,,,,,,,,,,,,,,,,,,,,,,,,,,,,,1102,001,2,1,2022_Feb_10_1602,task_complete_blocked_LC_updated,2021.2.3,237.7793307522167,
,,,X,1,,,,,,,,,,,,,,,,,,,,,,,,,,,,,,,,,,,13,0,26,0,,,,,,,,,,,,,,,,,,,,,,,,,,,,,,,,,,,,,,,,,,,,,,,,,,,,,,,,,,,,,,,,,,,,,,,,,,,,,,,,,,,2367.293862099992,2368.2449914999306,1,1,2367.293862099992,2368.2449914999306,2368.2420860999264,None,0.44737839978188276,,,,,,,,,,,,,,,,,,,,,,,,,,,,,,,1102,001,2,1,2022_Feb_10_1602,task_complete_blocked_LC_updated,2021.2.3,237.7793307522167,
,,,O,2,,,,,,,,,,,,,,,,,,,,,,,,,,,,,,,,,,,13,1,27,1,,,,,,,,,,,,,,,,,,,,,,,,,,,,,,,,,,,,,,,,,,,,,,,,,,,,,,,,,,,,,,,,,,,,,,,,,,,,,,,,,,,2368.295540999854,2369.2486070999876,2,1,2368.295540999854,2369.2486070999876,2369.2454570999835,None,0.42351190000772476,,,,,,,,,,,,,,,,,,,,,,,,,,,,,,,1102,001,2,1,2022_Feb_10_1602,task_complete_blocked_LC_updated,2021.2.3,237.7793307522167,
,,,O,2,,,,,,,,,,,,,,,,,,,,,,,,,,,,,,,,,,,14,0,28,1,,,,,,,,,,,,,,,,,,,,,,,,,,,,,,,,,,,,,,,,,,,,,,,,,,,,,,,,,,,,,,,,,,,,,,,,,,,,,,,,,,,2369.293785799993,2370.245569600025,2,1,2369.293785799993,2370.245569600025,2370.24268629984,None,0.3852172000333667,,,,,,,,,,,,,,,,,,,,,,,,,,,,,,,1102,001,2,1,2022_Feb_10_1602,task_complete_blocked_LC_updated,2021.2.3,237.7793307522167,
,,,X,1,,,,,,,,,,,,,,,,,,,,,,,,,,,,,,,,,,,14,1,29,0,,,,,,,,,,,,,,,,,,,,,,,,,,,,,,,,,,,,,,,,,,,,,,,,,,,,,,,,,,,,,,,,,,,,,,,,,,,,,,,,,,,2370.294782999903,2371.2466191998683,1,1,2370.294782999903,2371.2466191998683,2371.2432887998875,None,0.23034900007769465,,,,,,,,,,,,,,,,,,,,,,,,,,,,,,,1102,001,2,1,2022_Feb_10_1602,task_complete_blocked_LC_updated,2021.2.3,237.7793307522167,
,,,X,1,,,,,,,,,,,,,,,,,,,,,,,,,,,,,,,,,,,15,0,30,0,,,,,,,,,,,,,,,,,,,,,,,,,,,,,,,,,,,,,,,,,,,,,,,,,,,,,,,,,,,,,,,,,,,,,,,,,,,,,,,,,,,2371.2949332999997,2372.245792399859,1,1,2371.2949332999997,2372.245792399859,2372.2424276999664,None,0.3480724000837654,,,,,,,,,,,,,,,,,,,,,,,,,,,,,,,1102,001,2,1,2022_Feb_10_1602,task_complete_blocked_LC_updated,2021.2.3,237.7793307522167,
,,,O,2,,,,,,,,,,,,,,,,,,,,,,,,,,,,,,,,,,,15,1,31,1,,,,,,,,,,,,,,,,,,,,,,,,,,,,,,,,,,,,,,,,,,,,,,,,,,,,,,,,,,,,,,,,,,,,,,,,,,,,,,,,,,,2372.2954740999267,2373.244732100051,2,1,2372.2954740999267,2373.244732100051,2373.2425452999305,None,0.3947896999306977,,,,,,,,,,,,,,,,,,,,,,,,,,,,,,,1102,001,2,1,2022_Feb_10_1602,task_complete_blocked_LC_updated,2021.2.3,237.7793307522167,
