stimImg,taskType,audTrial,letter,correctResponse,familiarCorrect,sourceCorrect,encode_trials1.thisRepN,encode_trials1.thisTrialN,encode_trials1.thisN,encode_trials1.thisIndex,encode_trials2.thisRepN,encode_trials2.thisTrialN,encode_trials2.thisN,encode_trials2.thisIndex,distractor.thisRepN,distractor.thisTrialN,distractor.thisN,distractor.thisIndex,encode_trials3.thisRepN,encode_trials3.thisTrialN,encode_trials3.thisN,encode_trials3.thisIndex,encode_trials4.thisRepN,encode_trials4.thisTrialN,encode_trials4.thisN,encode_trials4.thisIndex,distractor_2.thisRepN,distractor_2.thisTrialN,distractor_2.thisN,distractor_2.thisIndex,encode_trials5.thisRepN,encode_trials5.thisTrialN,encode_trials5.thisN,encode_trials5.thisIndex,encode_trials6.thisRepN,encode_trials6.thisTrialN,encode_trials6.thisN,encode_trials6.thisIndex,distractor3.thisRepN,distractor3.thisTrialN,distractor3.thisN,distractor3.thisIndex,encode_trials7.thisRepN,encode_trials7.thisTrialN,encode_trials7.thisN,encode_trials7.thisIndex,encode_trials8.thisRepN,encode_trials8.thisTrialN,encode_trials8.thisN,encode_trials8.thisIndex,distractor4.thisRepN,distractor4.thisTrialN,distractor4.thisN,distractor4.thisIndex,retrieval_trials1.thisRepN,retrieval_trials1.thisTrialN,retrieval_trials1.thisN,retrieval_trials1.thisIndex,retrieval_trials2.thisRepN,retrieval_trials2.thisTrialN,retrieval_trials2.thisN,retrieval_trials2.thisIndex,retrieval_trials3.thisRepN,retrieval_trials3.thisTrialN,retrieval_trials3.thisN,retrieval_trials3.thisIndex,retrieval_trials4.thisRepN,retrieval_trials4.thisTrialN,retrieval_trials4.thisN,retrieval_trials4.thisIndex,button_check_1.started,button_check_1.stopped,button_check_resp_1.keys,button_check_resp_1.rt,button_check_resp_1.started,button_check_resp_1.stopped,text_2.started,text_2.stopped,key_resp_3.keys,key_resp_3.rt,key_resp_3.started,key_resp_3.stopped,text_3.started,text_3.stopped,key_resp_4.keys,key_resp_4.rt,key_resp_4.started,key_resp_4.stopped,text_4.started,text_4.stopped,key_resp_5.keys,key_resp_5.rt,key_resp_5.started,key_resp_5.stopped,wait_text.started,wait_text.stopped,scanner_pulse.keys,scanner_pulse.rt,scanner_pulse.started,scanner_pulse.stopped,Trial_cue_onset,instruction.started,instruction.stopped,image_3.started,image_3.stopped,in_.started,in_.stopped,source_cue.started,source_cue.stopped,fixation.started,fixation.stopped,Response_cue_onset,rating.started,rating.stopped,text.started,text.stopped,rating_resp.keys,rating_resp.rt,rating_resp.started,rating_resp.stopped,text_16.started,text_16.stopped,instruc.started,instruc.stopped,distractor_task.started,distractor_task.stopped,distractor_task_resp.keys,distractor_task_resp.corr,distractor_task_resp.started,distractor_task_resp.stopped,flicker.started,flicker.stopped,distractor_task_resp.rt,end_screen.started,end_screen.stopped,spacebar_press.keys,spacebar_press.rt,spacebar_press.started,spacebar_press.stopped,one_moment.started,one_moment.stopped,Trial_familiarity_onset,item_rec.started,item_rec.stopped,image_4.started,image_4.stopped,item_rec_guide.started,item_rec_guide.stopped,item_rec_resp.keys,item_rec_resp.corr,item_rec_resp.rt,item_rec_resp.started,item_rec_resp.stopped,Trial_source_onset,source_rec.started,source_rec.stopped,source_rec_resp.keys,source_rec_resp.corr,source_rec_resp.rt,source_rec_resp.started,source_rec_resp.stopped,text_14.started,text_14.stopped,participant,session,group,university,date,expName,psychopyVersion,frameRate,
,,,,,,,,,,,,,,,,,,,,,,,,,,,,,,,,,,,,,,,,,,,,,,,,,,,,,,,,,,,,,,,,,,,,,,,25.315395799989346,None,1,0.9772259999881499,25.315395799989346,None,,,,,,,,,,,,,,,,,,,,,,,,,,,,,,,,,,,,,,,,,,,,,,,,,,,,,,,,,,,,,,,,,,,,,,,,,,,,,,,,,,,,,,,,1103-t2,001,3,1,2022_Mar_22_1523,task_complete_blocked_LC_updated,2021.2.3,233.18774648186778,
,,,,,,,,,,,,,,,,,,,,,,,,,,,,,,,,,,,,,,,,,,,,,,,,,,,,,,,,,,,,,,,,,,,,,,,,,,,,,26.308179699990433,None,2,0.8735961000202224,26.308179699990433,None,,,,,,,,,,,,,,,,,,,,,,,,,,,,,,,,,,,,,,,,,,,,,,,,,,,,,,,,,,,,,,,,,,,,,,,,,,,,,,,,,,1103-t2,001,3,1,2022_Mar_22_1523,task_complete_blocked_LC_updated,2021.2.3,233.18774648186778,
,,,,,,,,,,,,,,,,,,,,,,,,,,,,,,,,,,,,,,,,,,,,,,,,,,,,,,,,,,,,,,,,,,,,,,,,,,,,,,,,,,,27.190479699987918,None,3,0.6225893999799155,27.190479699987918,None,,,,,,,,,,,,,,,,,,,,,,,,,,,,,,,,,,,,,,,,,,,,,,,,,,,,,,,,,,,,,,,,,,,,,,,,,,,,1103-t2,001,3,1,2022_Mar_22_1523,task_complete_blocked_LC_updated,2021.2.3,233.18774648186778,
,,,,,,,,,,,,,,,,,,,,,,,,,,,,,,,,,,,,,,,,,,,,,,,,,,,,,,,,,,,,,,,,,,,,,,,,,,,,,,,,,,,,,,,,,27.822168099984992,None,4,0.27433889999520034,27.822168099984992,None,,,,,,,,,,,,,,,,,,,,,,,,,,,,,,,,,,,,,,,,,,,,,,,,,,,,,,,,,,,,,,,,,,,,,,1103-t2,001,3,1,2022_Mar_22_1523,task_complete_blocked_LC_updated,2021.2.3,233.18774648186778,
,,,,,,,,,,,,,,,,,,,,,,,,,,,,,,,,,,,,,,,,,,,,,,,,,,,,,,,,,,,,,,,,,,,,,,,,,,,,,,,,,,,,,,,,,,,,,,,28.10591209999984,None,5,19.041535199969076,28.10591209999984,None,,,,,,,,,,,,,,,,,,,,,,,,,,,,,,,,,,,,,,,,,,,,,,,,,,,,,,,,,,,,,,,,1103-t2,001,3,1,2022_Mar_22_1523,task_complete_blocked_LC_updated,2021.2.3,233.18774648186778,
stimulus_images/AOTOSCOP5.jpg,TIME,0,,,,,0,0,0,9,,,,,,,,,,,,,,,,,,,,,,,,,,,,,,,,,,,,,,,,,,,,,,,,,,,,,,,,,,,,,,,,,,,,,,,,,,,,,,,,,,,,,,,,,,,2.600019797682762e-06,47.18047669995576,49.18749839998782,47.18047669995576,49.18749839998782,48.175489699991886,49.1832322999835,48.175489699991886,49.1832322999835,49.1832322999835,None,5.988515599980019,53.162268699961714,None,53.162268699961714,None,3,1.4427535999566317,53.162268699961714,None,59.16076499997871,None,,,,,,,,,,,,,,,,,,,,,,,,,,,,,,,,,,,,,,,,,,1103-t2,001,3,1,2022_Mar_22_1523,task_complete_blocked_LC_updated,2021.2.3,233.18774648186778,
stimulus_images/ABILLTABL.jpg,TIME,1,,,,,0,1,1,2,,,,,,,,,,,,,,,,,,,,,,,,,,,,,,,,,,,,,,,,,,,,,,,,,,,,,,,,,,,,,,,,,,,,,,,,,,,,,,,,,,,,,,,,,,,14.990019500022754,62.17365289997542,64.18840210000053,62.17365289997542,64.18840210000053,63.17432299995562,64.18840210000053,63.17432299995562,64.18840210000053,64.18092999997316,None,20.992599899997003,68.16592259996105,None,68.16592259996105,None,4,0.9175523999729194,68.16592259996105,None,74.16711270000087,None,,,,,,,,,,,,,,,,,,,,,,,,,,,,,,,,,,,,,,,,,,1103-t2,001,3,1,2022_Mar_22_1523,task_complete_blocked_LC_updated,2021.2.3,233.18774648186778,
stimulus_images/ACAROSLI2.jpg,TIME,0,,,,,0,2,2,4,,,,,,,,,,,,,,,,,,,,,,,,,,,,,,,,,,,,,,,,,,,,,,,,,,,,,,,,,,,,,,,,,,,,,,,,,,,,,,,,,,,,,,,,,,,29.998436000023503,77.17515029996866,79.17569599999115,77.17515029996866,79.17569599999115,78.17059840000002,79.17274629999883,78.17059840000002,79.17274629999883,79.17274629999883,None,36.00098309997702,83.17443660000572,None,83.17443660000572,None,4,1.4577894000103697,83.17443660000572,None,89.17446409998229,None,,,,,,,,,,,,,,,,,,,,,,,,,,,,,,,,,,,,,,,,,,1103-t2,001,3,1,2022_Mar_22_1523,task_complete_blocked_LC_updated,2021.2.3,233.18774648186778,
stimulus_images/Acomputerdriv.jpg,TIME,0,,,,,0,3,3,5,,,,,,,,,,,,,,,,,,,,,,,,,,,,,,,,,,,,,,,,,,,,,,,,,,,,,,,,,,,,,,,,,,,,,,,,,,,,,,,,,,,,,,,,,,,43.00219740002649,90.17917239997769,92.18075850000605,90.17917239997769,92.18075850000605,91.17495499999495,92.17797309998423,91.17495499999495,92.17797309998423,92.17797309998423,None,49.00517120002769,96.17871939996257,None,96.17871939996257,None,3,1.0188673999509774,96.17871939996257,None,102.17983360000653,None,,,,,,,,,,,,,,,,,,,,,,,,,,,,,,,,,,,,,,,,,,1103-t2,001,3,1,2022_Mar_22_1523,task_complete_blocked_LC_updated,2021.2.3,233.18774648186778,
stimulus_images/AICESKAT8.jpg,TIME,0,,,,,0,4,4,8,,,,,,,,,,,,,,,,,,,,,,,,,,,,,,,,,,,,,,,,,,,,,,,,,,,,,,,,,,,,,,,,,,,,,,,,,,,,,,,,,,,,,,,,,,,58.01094449998345,105.19527510000626,107.19663580000633,105.19527510000626,107.19663580000633,106.18758339999476,107.18950739997672,106.18758339999476,107.18950739997672,107.18950739997672,None,64.01357710000593,111.18699089996517,None,111.18699089996517,None,3,0.6246386000420898,111.18699089996517,None,117.18691619997844,None,,,,,,,,,,,,,,,,,,,,,,,,,,,,,,,,,,,,,,,,,,1103-t2,001,3,1,2022_Mar_22_1523,task_complete_blocked_LC_updated,2021.2.3,233.18774648186778,
stimulus_images/Aboxofchocola.jpg,TIME,0,,,,,0,5,5,3,,,,,,,,,,,,,,,,,,,,,,,,,,,,,,,,,,,,,,,,,,,,,,,,,,,,,,,,,,,,,,,,,,,,,,,,,,,,,,,,,,,,,,,,,,,71.01533899997594,118.19832219998352,120.20384689996717,118.19832219998352,120.20384689996717,119.19510720000835,120.1959442999796,119.19510720000835,120.1959442999796,120.1959442999796,None,77.01784759998554,124.19142049999209,None,124.19142049999209,None,3,1.0348433000035584,124.19142049999209,None,130.19203659996856,None,,,,,,,,,,,,,,,,,,,,,,,,,,,,,,,,,,,,,,,,,,1103-t2,001,3,1,2022_Mar_22_1523,task_complete_blocked_LC_updated,2021.2.3,233.18774648186778,
stimulus_images/Aeasteregg14.jpg,TIME,0,,,,,0,6,6,6,,,,,,,,,,,,,,,,,,,,,,,,,,,,,,,,,,,,,,,,,,,,,,,,,,,,,,,,,,,,,,,,,,,,,,,,,,,,,,,,,,,,,,,,,,,85.01998979999917,132.197234799969,134.19644979998702,132.197234799969,134.19644979998702,133.190965399961,134.19224429997848,133.190965399961,134.19224429997848,134.19224429997848,None,91.02203440002631,138.19495839998126,None,138.19495839998126,None,2,1.0664743999950588,138.19495839998126,None,144.194144100009,None,,,,,,,,,,,,,,,,,,,,,,,,,,,,,,,,,,,,,,,,,,1103-t2,001,3,1,2022_Mar_22_1523,task_complete_blocked_LC_updated,2021.2.3,233.18774648186778,
stimulus_images/Agiftbag20.jpg,TIME,1,,,,,0,7,7,7,,,,,,,,,,,,,,,,,,,,,,,,,,,,,,,,,,,,,,,,,,,,,,,,,,,,,,,,,,,,,,,,,,,,,,,,,,,,,,,,,,,,,,,,,,,100.02377570001408,147.20138389995554,149.2005046000122,147.20138389995554,149.2005046000122,148.19605989998672,149.2005046000122,148.19605989998672,149.2005046000122,149.19756429997506,None,106.02623540000059,153.19974859996,None,153.19974859996,None,3,1.608380899997428,153.19974859996,None,159.201521400013,None,,,,,,,,,,,,,,,,,,,,,,,,,,,,,,,,,,,,,,,,,,1103-t2,001,3,1,2022_Mar_22_1523,task_complete_blocked_LC_updated,2021.2.3,233.18774648186778,
stimulus_images/ABALLYAR4.jpg,TIME,0,,,,,0,8,8,1,,,,,,,,,,,,,,,,,,,,,,,,,,,,,,,,,,,,,,,,,,,,,,,,,,,,,,,,,,,,,,,,,,,,,,,,,,,,,,,,,,,,,,,,,,,114.03213680000044,161.20877929998096,163.2088192999945,161.20877929998096,163.2088192999945,162.20477949996712,163.2088192999945,162.20477949996712,163.2088192999945,163.2058211999829,None,120.03459639998619,167.20764400000917,None,167.20764400000917,None,3,1.787634500011336,167.20764400000917,None,173.20635019999463,None,,,,,,,,,,,,,,,,,,,,,,,,,,,,,,,,,,,,,,,,,,1103-t2,001,3,1,2022_Mar_22_1523,task_complete_blocked_LC_updated,2021.2.3,233.18774648186778,
stimulus_images/AARMCHA25.jpg,TIME,0,,,,,0,9,9,0,,,,,,,,,,,,,,,,,,,,,,,,,,,,,,,,,,,,,,,,,,,,,,,,,,,,,,,,,,,,,,,,,,,,,,,,,,,,,,,,,,,,,,,,,,,127.03642329998547,174.21939639997436,176.2203064999776,174.21939639997436,176.2203064999776,175.2166043999605,176.2171984000015,175.2166043999605,176.2171984000015,176.2171984000015,None,133.04336609999882,180.22199190000538,None,180.22199190000538,None,3,1.1286857000086457,180.22199190000538,None,186.21266279998235,None,,,,,,,,,,,,,,,,,,,,,,,,,,,,,,,,,,,,,,,,,,1103-t2,001,3,1,2022_Mar_22_1523,task_complete_blocked_LC_updated,2021.2.3,233.18774648186778,
stimulus_images/AALTIRE2.jpg,TIME,0,,,,,,,,,0,0,0,5,,,,,,,,,,,,,,,,,,,,,,,,,,,,,,,,,,,,,,,,,,,,,,,,,,,,,,,,,,,,,,,,,,,,,,,,,,,,,,,,,,,,,,,142.04640519997338,189.2292348999763,191.23141589999432,189.2292348999763,191.23141589999432,190.2256911000004,191.23141589999432,190.2256911000004,191.23141589999432,191.22524100000737,None,148.0432408999768,195.2166061999742,None,195.2166061999742,None,3,1.34674070001347,195.2166061999742,None,201.2174046,None,,,,,,,,,,,,,,,,,,,,,,,,,,,,,,,,,,,,,,,,,,1103-t2,001,3,1,2022_Mar_22_1523,task_complete_blocked_LC_updated,2021.2.3,233.18774648186778,
stimulus_images/A25thdec3.jpg,TIME,0,,,,,,,,,0,1,1,4,,,,,,,,,,,,,,,,,,,,,,,,,,,,,,,,,,,,,,,,,,,,,,,,,,,,,,,,,,,,,,,,,,,,,,,,,,,,,,,,,,,,,,,155.04887220001547,202.2250206999597,204.22582190000685,202.2250206999597,204.22582190000685,203.22176739998395,204.22582190000685,203.22176739998395,204.22582190000685,204.22582190000685,None,161.0505225000088,208.22607059997972,None,208.22607059997972,None,2,0.8440235000452958,208.22607059997972,None,214.22547649999615,None,,,,,,,,,,,,,,,,,,,,,,,,,,,,,,,,,,,,,,,,,,1103-t2,001,3,1,2022_Mar_22_1523,task_complete_blocked_LC_updated,2021.2.3,233.18774648186778,
stimulus_images/wetsuit1.jpg,TIME,0,,,,,,,,,0,2,2,3,,,,,,,,,,,,,,,,,,,,,,,,,,,,,,,,,,,,,,,,,,,,,,,,,,,,,,,,,,,,,,,,,,,,,,,,,,,,,,,,,,,,,,,169.05366700002924,216.23782489995938,218.23797199997352,216.23782489995938,218.23797199997352,217.23470369999995,218.2349909999757,217.23470369999995,218.2349909999757,218.2349909999757,None,175.05576959997416,222.22903399995994,None,222.22903399995994,None,3,1.502253099984955,222.22903399995994,None,228.227920299978,None,,,,,,,,,,,,,,,,,,,,,,,,,,,,,,,,,,,,,,,,,,1103-t2,001,3,1,2022_Mar_22_1523,task_complete_blocked_LC_updated,2021.2.3,233.18774648186778,
stimulus_images/corkscrew02.jpg,TIME,0,,,,,,,,,0,3,3,2,,,,,,,,,,,,,,,,,,,,,,,,,,,,,,,,,,,,,,,,,,,,,,,,,,,,,,,,,,,,,,,,,,,,,,,,,,,,,,,,,,,,,,,184.05773960001534,231.24097089999123,233.2434179999982,231.24097089999123,233.2434179999982,232.2395479999832,233.2434179999982,232.2395479999832,233.2434179999982,233.2390884999768,None,190.06356739997864,237.23986159998458,None,237.23986159998458,None,3,1.2560609999927692,237.23986159998458,None,243.23320509999758,None,,,,,,,,,,,,,,,,,,,,,,,,,,,,,,,,,,,,,,,,,,1103-t2,001,3,1,2022_Mar_22_1523,task_complete_blocked_LC_updated,2021.2.3,233.18774648186778,
stimulus_images/Aboots56.jpg,TIME,0,,,,,,,,,0,4,4,9,,,,,,,,,,,,,,,,,,,,,,,,,,,,,,,,,,,,,,,,,,,,,,,,,,,,,,,,,,,,,,,,,,,,,,,,,,,,,,,,,,,,,,,197.06171259999974,244.2446581000113,246.24370190000627,244.2446581000113,246.24370190000627,245.2417473999667,246.24370190000627,245.2417473999667,246.24370190000627,246.2406289000064,None,203.0641525000101,250.23711609997554,None,250.23711609997554,None,3,2.3563158999895677,250.23711609997554,None,256.2410360999638,None,,,,,,,,,,,,,,,,,,,,,,,,,,,,,,,,,,,,,,,,,,1103-t2,001,3,1,2022_Mar_22_1523,task_complete_blocked_LC_updated,2021.2.3,233.18774648186778,
stimulus_images/Aroadsignin15.jpg,TIME,1,,,,,,,,,0,5,5,0,,,,,,,,,,,,,,,,,,,,,,,,,,,,,,,,,,,,,,,,,,,,,,,,,,,,,,,,,,,,,,,,,,,,,,,,,,,,,,,,,,,,,,,211.06991439999547,258.2508548999904,260.2539076000103,258.2508548999904,260.2539076000103,259.2414901999873,260.2413369999849,259.2414901999873,260.2413369999849,260.2413369999849,None,217.0706389999832,264.24361969996244,None,264.24361969996244,None,1,0.9135880999965593,264.24361969996244,None,270.2460262000095,None,,,,,,,,,,,,,,,,,,,,,,,,,,,,,,,,,,,,,,,,,,1103-t2,001,3,1,2022_Mar_22_1523,task_complete_blocked_LC_updated,2021.2.3,233.18774648186778,
stimulus_images/Atelescope2.jpg,TIME,1,,,,,,,,,0,6,6,1,,,,,,,,,,,,,,,,,,,,,,,,,,,,,,,,,,,,,,,,,,,,,,,,,,,,,,,,,,,,,,,,,,,,,,,,,,,,,,,,,,,,,,,225.07526110002073,272.2531195000047,274.25228979997337,272.2531195000047,274.25228979997337,273.2515774999629,274.25228979997337,273.2515774999629,274.25228979997337,274.24917299998924,None,231.07668709999416,278.249962700007,None,278.249962700007,None,3,1.363186799979303,278.249962700007,None,284.25429269997403,None,,,,,,,,,,,,,,,,,,,,,,,,,,,,,,,,,,,,,,,,,,1103-t2,001,3,1,2022_Mar_22_1523,task_complete_blocked_LC_updated,2021.2.3,233.18774648186778,
stimulus_images/Abackpack11.jpg,TIME,1,,,,,,,,,0,7,7,7,,,,,,,,,,,,,,,,,,,,,,,,,,,,,,,,,,,,,,,,,,,,,,,,,,,,,,,,,,,,,,,,,,,,,,,,,,,,,,,,,,,,,,,239.0818556000013,286.26432580000255,288.2629478999879,286.26432580000255,288.2629478999879,287.2590928999707,288.2600298000034,287.2590928999707,288.2600298000034,288.2600298000034,None,245.08509529998992,292.25901489995886,None,292.25901489995886,None,3,1.2325625999947079,292.25901489995886,None,298.2583016999997,None,,,,,,,,,,,,,,,,,,,,,,,,,,,,,,,,,,,,,,,,,,1103-t2,001,3,1,2022_Mar_22_1523,task_complete_blocked_LC_updated,2021.2.3,233.18774648186778,
stimulus_images/Abasketofbrea.jpg,TIME,0,,,,,,,,,0,8,8,8,,,,,,,,,,,,,,,,,,,,,,,,,,,,,,,,,,,,,,,,,,,,,,,,,,,,,,,,,,,,,,,,,,,,,,,,,,,,,,,,,,,,,,,253.08714100002544,300.2636713999673,302.2634342999663,300.2636713999673,302.2634342999663,301.2590224999585,302.2606966999592,301.2590224999585,302.2606966999592,302.2577043999918,None,259.08727600000566,306.26037139998516,None,306.26037139998516,None,2,0.478832799999509,306.26037139998516,None,312.2615005999687,None,,,,,,,,,,,,,,,,,,,,,,,,,,,,,,,,,,,,,,,,,,1103-t2,001,3,1,2022_Mar_22_1523,task_complete_blocked_LC_updated,2021.2.3,233.18774648186778,
stimulus_images/Aantiquerota7.jpg,TIME,0,,,,,,,,,0,9,9,6,,,,,,,,,,,,,,,,,,,,,,,,,,,,,,,,,,,,,,,,,,,,,,,,,,,,,,,,,,,,,,,,,,,,,,,,,,,,,,,,,,,,,,,266.0910666999989,313.2731255000108,315.2740377999726,313.2731255000108,315.2740377999726,314.27083210001,315.2740377999726,314.27083210001,315.2740377999726,315.2686820999952,None,272.09377159998985,319.2673761000042,None,319.2673761000042,None,3,1.4147611999651417,319.2673761000042,None,325.2644169999985,None,,,,,,,,,,,,,,,,,,,,,,,,,,,,,,,,,,,,,,,,,,1103-t2,001,3,1,2022_Mar_22_1523,task_complete_blocked_LC_updated,2021.2.3,233.18774648186778,
,,,O,2,,,,,,,,,,,0,0,0,1,,,,,,,,,,,,,,,,,,,,,,,,,,,,,,,,,,,,,,,,,,,,,,,,,,,,,,,,,,,,,,,,,,,,,,,,,,,,,,,,,,,,,,,,,,,,,,,,,,,,,,,,,327.26737519999733,None,330.27898629999254,331.2280691000051,None,0,330.27898629999254,331.2280691000051,331.2280691000051,None,,,,,,,,,,,,,,,,,,,,,,,,,,,,,,,,1103-t2,001,3,1,2022_Mar_22_1523,task_complete_blocked_LC_updated,2021.2.3,233.18774648186778,
,,,X,1,,,,,,,,,,,0,1,1,0,,,,,,,,,,,,,,,,,,,,,,,,,,,,,,,,,,,,,,,,,,,,,,,,,,,,,,,,,,,,,,,,,,,,,,,,,,,,,,,,,,,,,,,,,,,,,,,,,,,,,,,,,,,331.2734180999687,332.2235252999817,1,1,331.2734180999687,332.2235252999817,332.22003159997985,None,0.7009242000058293,,,,,,,,,,,,,,,,,,,,,,,,,,,,,,,1103-t2,001,3,1,2022_Mar_22_1523,task_complete_blocked_LC_updated,2021.2.3,233.18774648186778,
,,,O,2,,,,,,,,,,,1,0,2,1,,,,,,,,,,,,,,,,,,,,,,,,,,,,,,,,,,,,,,,,,,,,,,,,,,,,,,,,,,,,,,,,,,,,,,,,,,,,,,,,,,,,,,,,,,,,,,,,,,,,,,,,,,,332.2715512999566,333.2230334999622,2,1,332.2715512999566,333.2230334999622,333.2197861999739,None,0.4942931999685243,,,,,,,,,,,,,,,,,,,,,,,,,,,,,,,1103-t2,001,3,1,2022_Mar_22_1523,task_complete_blocked_LC_updated,2021.2.3,233.18774648186778,
,,,X,1,,,,,,,,,,,1,1,3,0,,,,,,,,,,,,,,,,,,,,,,,,,,,,,,,,,,,,,,,,,,,,,,,,,,,,,,,,,,,,,,,,,,,,,,,,,,,,,,,,,,,,,,,,,,,,,,,,,,,,,,,,,,,333.2751978999586,334.2262952000019,1,1,333.2751978999586,334.2262952000019,334.2194591999869,None,0.7545106000034139,,,,,,,,,,,,,,,,,,,,,,,,,,,,,,,1103-t2,001,3,1,2022_Mar_22_1523,task_complete_blocked_LC_updated,2021.2.3,233.18774648186778,
,,,X,1,,,,,,,,,,,2,0,4,0,,,,,,,,,,,,,,,,,,,,,,,,,,,,,,,,,,,,,,,,,,,,,,,,,,,,,,,,,,,,,,,,,,,,,,,,,,,,,,,,,,,,,,,,,,,,,,,,,,,,,,,,,,,334.2708359999815,335.21949339995626,1,1,334.2708359999815,335.21949339995626,335.216927499976,None,0.6268194000003859,,,,,,,,,,,,,,,,,,,,,,,,,,,,,,,1103-t2,001,3,1,2022_Mar_22_1523,task_complete_blocked_LC_updated,2021.2.3,233.18774648186778,
,,,O,2,,,,,,,,,,,2,1,5,1,,,,,,,,,,,,,,,,,,,,,,,,,,,,,,,,,,,,,,,,,,,,,,,,,,,,,,,,,,,,,,,,,,,,,,,,,,,,,,,,,,,,,,,,,,,,,,,,,,,,,,,,,,,335.2696434999816,336.22152419999475,2,1,335.2696434999816,336.22152419999475,336.218452400004,335.2696434999816,0.528278500016313,,,,,,,,,,,,,,,,,,,,,,,,,,,,,,,1103-t2,001,3,1,2022_Mar_22_1523,task_complete_blocked_LC_updated,2021.2.3,233.18774648186778,
,,,X,1,,,,,,,,,,,3,0,6,0,,,,,,,,,,,,,,,,,,,,,,,,,,,,,,,,,,,,,,,,,,,,,,,,,,,,,,,,,,,,,,,,,,,,,,,,,,,,,,,,,,,,,,,,,,,,,,,,,,,,,,,,,,,336.27115230000345,337.22129959997255,1,1,336.27115230000345,337.22129959997255,337.21830199996475,336.27115230000345,0.5850060000084341,,,,,,,,,,,,,,,,,,,,,,,,,,,,,,,1103-t2,001,3,1,2022_Mar_22_1523,task_complete_blocked_LC_updated,2021.2.3,233.18774648186778,
,,,O,2,,,,,,,,,,,3,1,7,1,,,,,,,,,,,,,,,,,,,,,,,,,,,,,,,,,,,,,,,,,,,,,,,,,,,,,,,,,,,,,,,,,,,,,,,,,,,,,,,,,,,,,,,,,,,,,,,,,,,,,,,,,,,337.27016580000054,338.21990119997645,2,1,337.27016580000054,338.21990119997645,338.2162467999733,337.27016580000054,0.402835100016091,,,,,,,,,,,,,,,,,,,,,,,,,,,,,,,1103-t2,001,3,1,2022_Mar_22_1523,task_complete_blocked_LC_updated,2021.2.3,233.18774648186778,
,,,O,2,,,,,,,,,,,4,0,8,1,,,,,,,,,,,,,,,,,,,,,,,,,,,,,,,,,,,,,,,,,,,,,,,,,,,,,,,,,,,,,,,,,,,,,,,,,,,,,,,,,,,,,,,,,,,,,,,,,,,,,,,,,,,338.2677224999643,339.22003339999355,2,1,338.2677224999643,339.22003339999355,339.2163764999714,338.2677224999643,0.4644271999713965,,,,,,,,,,,,,,,,,,,,,,,,,,,,,,,1103-t2,001,3,1,2022_Mar_22_1523,task_complete_blocked_LC_updated,2021.2.3,233.18774648186778,
,,,X,1,,,,,,,,,,,4,1,9,0,,,,,,,,,,,,,,,,,,,,,,,,,,,,,,,,,,,,,,,,,,,,,,,,,,,,,,,,,,,,,,,,,,,,,,,,,,,,,,,,,,,,,,,,,,,,,,,,,,,,,,,,,,,339.2696683999966,340.2223845999688,1,1,339.2696683999966,340.2223845999688,340.21971589996247,339.2696683999966,0.43340209999587387,,,,,,,,,,,,,,,,,,,,,,,,,,,,,,,1103-t2,001,3,1,2022_Mar_22_1523,task_complete_blocked_LC_updated,2021.2.3,233.18774648186778,
,,,O,2,,,,,,,,,,,5,0,10,1,,,,,,,,,,,,,,,,,,,,,,,,,,,,,,,,,,,,,,,,,,,,,,,,,,,,,,,,,,,,,,,,,,,,,,,,,,,,,,,,,,,,,,,,,,,,,,,,,,,,,,,,,,,340.2723216000013,341.2228730999632,2,1,340.2723216000013,341.2228730999632,341.21945639996557,None,0.30849329999182373,,,,,,,,,,,,,,,,,,,,,,,,,,,,,,,1103-t2,001,3,1,2022_Mar_22_1523,task_complete_blocked_LC_updated,2021.2.3,233.18774648186778,
,,,X,1,,,,,,,,,,,5,1,11,0,,,,,,,,,,,,,,,,,,,,,,,,,,,,,,,,,,,,,,,,,,,,,,,,,,,,,,,,,,,,,,,,,,,,,,,,,,,,,,,,,,,,,,,,,,,,,,,,,,,,,,,,,,,341.27483529999154,342.2234269999899,1,1,341.27483529999154,342.2234269999899,342.220064299996,None,0.378036699956283,,,,,,,,,,,,,,,,,,,,,,,,,,,,,,,1103-t2,001,3,1,2022_Mar_22_1523,task_complete_blocked_LC_updated,2021.2.3,233.18774648186778,
,,,X,1,,,,,,,,,,,6,0,12,0,,,,,,,,,,,,,,,,,,,,,,,,,,,,,,,,,,,,,,,,,,,,,,,,,,,,,,,,,,,,,,,,,,,,,,,,,,,,,,,,,,,,,,,,,,,,,,,,,,,,,,,,,,,342.27239679999184,343.22237019997556,1,1,342.27239679999184,343.22237019997556,343.21962569997413,None,0.5185065999976359,,,,,,,,,,,,,,,,,,,,,,,,,,,,,,,1103-t2,001,3,1,2022_Mar_22_1523,task_complete_blocked_LC_updated,2021.2.3,233.18774648186778,
,,,O,2,,,,,,,,,,,6,1,13,1,,,,,,,,,,,,,,,,,,,,,,,,,,,,,,,,,,,,,,,,,,,,,,,,,,,,,,,,,,,,,,,,,,,,,,,,,,,,,,,,,,,,,,,,,,,,,,,,,,,,,,,,,,,343.2725003999658,344.22326229995815,2,1,343.2725003999658,344.22326229995815,344.220118600002,None,0.37542739999480546,,,,,,,,,,,,,,,,,,,,,,,,,,,,,,,1103-t2,001,3,1,2022_Mar_22_1523,task_complete_blocked_LC_updated,2021.2.3,233.18774648186778,
,,,X,1,,,,,,,,,,,7,0,14,0,,,,,,,,,,,,,,,,,,,,,,,,,,,,,,,,,,,,,,,,,,,,,,,,,,,,,,,,,,,,,,,,,,,,,,,,,,,,,,,,,,,,,,,,,,,,,,,,,,,,,,,,,,,344.2718908999814,345.22254129999783,1,1,344.2718908999814,345.22254129999783,345.21870279998984,None,0.5040218000067398,,,,,,,,,,,,,,,,,,,,,,,,,,,,,,,1103-t2,001,3,1,2022_Mar_22_1523,task_complete_blocked_LC_updated,2021.2.3,233.18774648186778,
,,,O,2,,,,,,,,,,,7,1,15,1,,,,,,,,,,,,,,,,,,,,,,,,,,,,,,,,,,,,,,,,,,,,,,,,,,,,,,,,,,,,,,,,,,,,,,,,,,,,,,,,,,,,,,,,,,,,,,,,,,,,,,,,,,,345.2737541999668,346.22535510000307,2,1,345.2737541999668,346.22535510000307,346.22274200001266,345.2737541999668,0.4191482999594882,,,,,,,,,,,,,,,,,,,,,,,,,,,,,,,1103-t2,001,3,1,2022_Mar_22_1523,task_complete_blocked_LC_updated,2021.2.3,233.18774648186778,
,,,X,1,,,,,,,,,,,8,0,16,0,,,,,,,,,,,,,,,,,,,,,,,,,,,,,,,,,,,,,,,,,,,,,,,,,,,,,,,,,,,,,,,,,,,,,,,,,,,,,,,,,,,,,,,,,,,,,,,,,,,,,,,,,,,346.27223939995747,347.22203899995657,1,1,346.27223939995747,347.22203899995657,347.21825259999605,None,0.3337826000060886,,,,,,,,,,,,,,,,,,,,,,,,,,,,,,,1103-t2,001,3,1,2022_Mar_22_1523,task_complete_blocked_LC_updated,2021.2.3,233.18774648186778,
,,,O,2,,,,,,,,,,,8,1,17,1,,,,,,,,,,,,,,,,,,,,,,,,,,,,,,,,,,,,,,,,,,,,,,,,,,,,,,,,,,,,,,,,,,,,,,,,,,,,,,,,,,,,,,,,,,,,,,,,,,,,,,,,,,,347.2720452999929,348.2210774999694,2,1,347.2720452999929,348.2210774999694,348.2174630999798,None,0.48503729997901246,,,,,,,,,,,,,,,,,,,,,,,,,,,,,,,1103-t2,001,3,1,2022_Mar_22_1523,task_complete_blocked_LC_updated,2021.2.3,233.18774648186778,
,,,O,2,,,,,,,,,,,9,0,18,1,,,,,,,,,,,,,,,,,,,,,,,,,,,,,,,,,,,,,,,,,,,,,,,,,,,,,,,,,,,,,,,,,,,,,,,,,,,,,,,,,,,,,,,,,,,,,,,,,,,,,,,,,,,348.26870730001247,349.21793019998586,2,1,348.26870730001247,349.21793019998586,349.21558590000495,348.26870730001247,0.3755120999994688,,,,,,,,,,,,,,,,,,,,,,,,,,,,,,,1103-t2,001,3,1,2022_Mar_22_1523,task_complete_blocked_LC_updated,2021.2.3,233.18774648186778,
,,,X,1,,,,,,,,,,,9,1,19,0,,,,,,,,,,,,,,,,,,,,,,,,,,,,,,,,,,,,,,,,,,,,,,,,,,,,,,,,,,,,,,,,,,,,,,,,,,,,,,,,,,,,,,,,,,,,,,,,,,,,,,,,,,,349.26874019997194,350.22135810001055,1,1,349.26874019997194,350.22135810001055,350.21772939997027,349.26874019997194,0.3181802000035532,,,,,,,,,,,,,,,,,,,,,,,,,,,,,,,1103-t2,001,3,1,2022_Mar_22_1523,task_complete_blocked_LC_updated,2021.2.3,233.18774648186778,
,,,O,2,,,,,,,,,,,10,0,20,1,,,,,,,,,,,,,,,,,,,,,,,,,,,,,,,,,,,,,,,,,,,,,,,,,,,,,,,,,,,,,,,,,,,,,,,,,,,,,,,,,,,,,,,,,,,,,,,,,,,,,,,,,,,350.27299209998455,351.2223689999664,2,1,350.27299209998455,351.2223689999664,351.2193980999873,None,0.4769666999927722,,,,,,,,,,,,,,,,,,,,,,,,,,,,,,,1103-t2,001,3,1,2022_Mar_22_1523,task_complete_blocked_LC_updated,2021.2.3,233.18774648186778,
,,,X,1,,,,,,,,,,,10,1,21,0,,,,,,,,,,,,,,,,,,,,,,,,,,,,,,,,,,,,,,,,,,,,,,,,,,,,,,,,,,,,,,,,,,,,,,,,,,,,,,,,,,,,,,,,,,,,,,,,,,,,,,,,,,,351.27247440000065,352.2230644999654,1,1,351.27247440000065,352.2230644999654,352.2205083000008,None,0.33641199994599447,,,,,,,,,,,,,,,,,,,,,,,,,,,,,,,1103-t2,001,3,1,2022_Mar_22_1523,task_complete_blocked_LC_updated,2021.2.3,233.18774648186778,
,,,X,1,,,,,,,,,,,11,0,22,0,,,,,,,,,,,,,,,,,,,,,,,,,,,,,,,,,,,,,,,,,,,,,,,,,,,,,,,,,,,,,,,,,,,,,,,,,,,,,,,,,,,,,,,,,,,,,,,,,,,,,,,,,,,352.2709077000036,353.2230844000005,1,1,352.2709077000036,353.2230844000005,353.21496909996495,None,0.3558907000115141,,,,,,,,,,,,,,,,,,,,,,,,,,,,,,,1103-t2,001,3,1,2022_Mar_22_1523,task_complete_blocked_LC_updated,2021.2.3,233.18774648186778,
,,,O,2,,,,,,,,,,,11,1,23,1,,,,,,,,,,,,,,,,,,,,,,,,,,,,,,,,,,,,,,,,,,,,,,,,,,,,,,,,,,,,,,,,,,,,,,,,,,,,,,,,,,,,,,,,,,,,,,,,,,,,,,,,,,,353.27039909997256,354.22093219996896,2,1,353.27039909997256,354.22093219996896,354.2180148999905,353.27039909997256,0.4953660999890417,,,,,,,,,,,,,,,,,,,,,,,,,,,,,,,1103-t2,001,3,1,2022_Mar_22_1523,task_complete_blocked_LC_updated,2021.2.3,233.18774648186778,
,,,O,2,,,,,,,,,,,12,0,24,1,,,,,,,,,,,,,,,,,,,,,,,,,,,,,,,,,,,,,,,,,,,,,,,,,,,,,,,,,,,,,,,,,,,,,,,,,,,,,,,,,,,,,,,,,,,,,,,,,,,,,,,,,,,354.274064600002,355.2265566000133,2,1,354.274064600002,355.2265566000133,355.21833409997635,None,0.40181579999625683,,,,,,,,,,,,,,,,,,,,,,,,,,,,,,,1103-t2,001,3,1,2022_Mar_22_1523,task_complete_blocked_LC_updated,2021.2.3,233.18774648186778,
,,,X,1,,,,,,,,,,,12,1,25,0,,,,,,,,,,,,,,,,,,,,,,,,,,,,,,,,,,,,,,,,,,,,,,,,,,,,,,,,,,,,,,,,,,,,,,,,,,,,,,,,,,,,,,,,,,,,,,,,,,,,,,,,,,,355.272402099974,356.2217275999719,1,1,355.272402099974,356.2217275999719,356.21896570001263,None,0.42472920002182946,,,,,,,,,,,,,,,,,,,,,,,,,,,,,,,1103-t2,001,3,1,2022_Mar_22_1523,task_complete_blocked_LC_updated,2021.2.3,233.18774648186778,
,,,X,1,,,,,,,,,,,13,0,26,0,,,,,,,,,,,,,,,,,,,,,,,,,,,,,,,,,,,,,,,,,,,,,,,,,,,,,,,,,,,,,,,,,,,,,,,,,,,,,,,,,,,,,,,,,,,,,,,,,,,,,,,,,,,356.2776111999992,357.2283337999834,1,1,356.2776111999992,357.2283337999834,357.21967889997177,None,0.49835529999108985,,,,,,,,,,,,,,,,,,,,,,,,,,,,,,,1103-t2,001,3,1,2022_Mar_22_1523,task_complete_blocked_LC_updated,2021.2.3,233.18774648186778,
,,,O,2,,,,,,,,,,,13,1,27,1,,,,,,,,,,,,,,,,,,,,,,,,,,,,,,,,,,,,,,,,,,,,,,,,,,,,,,,,,,,,,,,,,,,,,,,,,,,,,,,,,,,,,,,,,,,,,,,,,,,,,,,,,,,357.271471199987,358.22156609996455,2,1,357.271471199987,358.22156609996455,358.2182285999879,None,0.5504200999857858,,,,,,,,,,,,,,,,,,,,,,,,,,,,,,,1103-t2,001,3,1,2022_Mar_22_1523,task_complete_blocked_LC_updated,2021.2.3,233.18774648186778,
,,,O,2,,,,,,,,,,,14,0,28,1,,,,,,,,,,,,,,,,,,,,,,,,,,,,,,,,,,,,,,,,,,,,,,,,,,,,,,,,,,,,,,,,,,,,,,,,,,,,,,,,,,,,,,,,,,,,,,,,,,,,,,,,,,,358.270971299964,359.2243717999663,2,1,358.270971299964,359.2243717999663,359.2209983000066,None,0.4965165999601595,,,,,,,,,,,,,,,,,,,,,,,,,,,,,,,1103-t2,001,3,1,2022_Mar_22_1523,task_complete_blocked_LC_updated,2021.2.3,233.18774648186778,
,,,X,1,,,,,,,,,,,14,1,29,0,,,,,,,,,,,,,,,,,,,,,,,,,,,,,,,,,,,,,,,,,,,,,,,,,,,,,,,,,,,,,,,,,,,,,,,,,,,,,,,,,,,,,,,,,,,,,,,,,,,,,,,,,,,359.27189719997114,360.22199659998296,1,1,359.27189719997114,360.22199659998296,360.2188550999854,None,0.46411310002440587,,,,,,,,,,,,,,,,,,,,,,,,,,,,,,,1103-t2,001,3,1,2022_Mar_22_1523,task_complete_blocked_LC_updated,2021.2.3,233.18774648186778,
,,,O,2,,,,,,,,,,,15,0,30,1,,,,,,,,,,,,,,,,,,,,,,,,,,,,,,,,,,,,,,,,,,,,,,,,,,,,,,,,,,,,,,,,,,,,,,,,,,,,,,,,,,,,,,,,,,,,,,,,,,,,,,,,,,,360.2715181999956,361.21994489995996,2,1,360.2715181999956,361.21994489995996,361.21994489995996,None,0.5034634000039659,,,,,,,,,,,,,,,,,,,,,,,,,,,,,,,1103-t2,001,3,1,2022_Mar_22_1523,task_complete_blocked_LC_updated,2021.2.3,233.18774648186778,
,,,X,1,,,,,,,,,,,15,1,31,0,,,,,,,,,,,,,,,,,,,,,,,,,,,,,,,,,,,,,,,,,,,,,,,,,,,,,,,,,,,,,,,,,,,,,,,,,,,,,,,,,,,,,,,,,,,,,,,,,,,,,,,,,,,361.2707079999964,362.223079999967,1,1,361.2707079999964,362.223079999967,362.2197525000083,None,0.38532390003092587,,,,,,,,,,,,,,,,,,,,,,,,,,,,,,,1103-t2,001,3,1,2022_Mar_22_1523,task_complete_blocked_LC_updated,2021.2.3,233.18774648186778,
,,,X,1,,,,,,,,,,,16,0,32,0,,,,,,,,,,,,,,,,,,,,,,,,,,,,,,,,,,,,,,,,,,,,,,,,,,,,,,,,,,,,,,,,,,,,,,,,,,,,,,,,,,,,,,,,,,,,,,,,,,,,,,,,,,,362.27020480000647,363.2197220000089,1,1,362.27020480000647,363.2197220000089,363.21649449999677,None,0.3934647999703884,,,,,,,,,,,,,,,,,,,,,,,,,,,,,,,1103-t2,001,3,1,2022_Mar_22_1523,task_complete_blocked_LC_updated,2021.2.3,233.18774648186778,
,,,O,2,,,,,,,,,,,16,1,33,1,,,,,,,,,,,,,,,,,,,,,,,,,,,,,,,,,,,,,,,,,,,,,,,,,,,,,,,,,,,,,,,,,,,,,,,,,,,,,,,,,,,,,,,,,,,,,,,,,,,,,,,,,,,363.2697330999654,364.22100620000856,2,1,363.2697330999654,364.22100620000856,364.21744929999113,363.2697330999654,0.47221259999787435,,,,,,,,,,,,,,,,,,,,,,,,,,,,,,,1103-t2,001,3,1,2022_Mar_22_1523,task_complete_blocked_LC_updated,2021.2.3,233.18774648186778,
,,,X,1,,,,,,,,,,,17,0,34,0,,,,,,,,,,,,,,,,,,,,,,,,,,,,,,,,,,,,,,,,,,,,,,,,,,,,,,,,,,,,,,,,,,,,,,,,,,,,,,,,,,,,,,,,,,,,,,,,,,,,,,,,,,,364.26928659999976,365.2230372999911,1,1,364.26928659999976,365.2230372999911,365.2203061999753,364.26928659999976,0.5308922000112943,,,,,,,,,,,,,,,,,,,,,,,,,,,,,,,1103-t2,001,3,1,2022_Mar_22_1523,task_complete_blocked_LC_updated,2021.2.3,233.18774648186778,
,,,O,2,,,,,,,,,,,17,1,35,1,,,,,,,,,,,,,,,,,,,,,,,,,,,,,,,,,,,,,,,,,,,,,,,,,,,,,,,,,,,,,,,,,,,,,,,,,,,,,,,,,,,,,,,,,,,,,,,,,,,,,,,,,,,365.27266279998,366.22371019999264,2,1,365.27266279998,366.22371019999264,366.22371019999264,None,0.5100936999660917,,,,,,,,,,,,,,,,,,,,,,,,,,,,,,,1103-t2,001,3,1,2022_Mar_22_1523,task_complete_blocked_LC_updated,2021.2.3,233.18774648186778,
,,,X,1,,,,,,,,,,,18,0,36,0,,,,,,,,,,,,,,,,,,,,,,,,,,,,,,,,,,,,,,,,,,,,,,,,,,,,,,,,,,,,,,,,,,,,,,,,,,,,,,,,,,,,,,,,,,,,,,,,,,,,,,,,,,,366.2724074999569,367.2248116999981,1,1,366.2724074999569,367.2248116999981,367.22179069998674,None,0.5216983000282198,,,,,,,,,,,,,,,,,,,,,,,,,,,,,,,1103-t2,001,3,1,2022_Mar_22_1523,task_complete_blocked_LC_updated,2021.2.3,233.18774648186778,
,,,O,2,,,,,,,,,,,18,1,37,1,,,,,,,,,,,,,,,,,,,,,,,,,,,,,,,,,,,,,,,,,,,,,,,,,,,,,,,,,,,,,,,,,,,,,,,,,,,,,,,,,,,,,,,,,,,,,,,,,,,,,,,,,,,367.2718680999824,368.2255229000002,2,1,367.2718680999824,368.2255229000002,368.22282530000666,None,0.5009184000082314,,,,,,,,,,,,,,,,,,,,,,,,,,,,,,,1103-t2,001,3,1,2022_Mar_22_1523,task_complete_blocked_LC_updated,2021.2.3,233.18774648186778,
,,,O,2,,,,,,,,,,,19,0,38,1,,,,,,,,,,,,,,,,,,,,,,,,,,,,,,,,,,,,,,,,,,,,,,,,,,,,,,,,,,,,,,,,,,,,,,,,,,,,,,,,,,,,,,,,,,,,,,,,,,,,,,,,,,,368.27090000000317,369.2219305000035,2,1,368.27090000000317,369.2219305000035,369.218928999966,None,0.55576179997297,,,,,,,,,,,,,,,,,,,,,,,,,,,,,,,1103-t2,001,3,1,2022_Mar_22_1523,task_complete_blocked_LC_updated,2021.2.3,233.18774648186778,
,,,X,1,,,,,,,,,,,19,1,39,0,,,,,,,,,,,,,,,,,,,,,,,,,,,,,,,,,,,,,,,,,,,,,,,,,,,,,,,,,,,,,,,,,,,,,,,,,,,,,,,,,,,,,,,,,,,,,,,,,,,,,,,,,,,369.27380139997695,370.2254833999905,1,1,369.27380139997695,370.2254833999905,370.22208430001047,None,0.5781021000002511,,,,,,,,,,,,,,,,,,,,,,,,,,,,,,,1103-t2,001,3,1,2022_Mar_22_1523,task_complete_blocked_LC_updated,2021.2.3,233.18774648186778,
,,,X,1,,,,,,,,,,,20,0,40,0,,,,,,,,,,,,,,,,,,,,,,,,,,,,,,,,,,,,,,,,,,,,,,,,,,,,,,,,,,,,,,,,,,,,,,,,,,,,,,,,,,,,,,,,,,,,,,,,,,,,,,,,,,,370.27117089997046,371.2214329999988,1,1,370.27117089997046,371.2214329999988,371.217341999989,None,0.9313852000050247,,,,,,,,,,,,,,,,,,,,,,,,,,,,,,,1103-t2,001,3,1,2022_Mar_22_1523,task_complete_blocked_LC_updated,2021.2.3,233.18774648186778,
,,,O,2,,,,,,,,,,,20,1,41,1,,,,,,,,,,,,,,,,,,,,,,,,,,,,,,,,,,,,,,,,,,,,,,,,,,,,,,,,,,,,,,,,,,,,,,,,,,,,,,,,,,,,,,,,,,,,,,,,,,,,,,,,,,,371.2689602999599,372.21766679995926,2,1,371.2689602999599,372.21766679995926,372.21766679995926,371.2689602999599,0.7106960999662988,,,,,,,,,,,,,,,,,,,,,,,,,,,,,,,1103-t2,001,3,1,2022_Mar_22_1523,task_complete_blocked_LC_updated,2021.2.3,233.18774648186778,
,,,O,2,,,,,,,,,,,21,0,42,1,,,,,,,,,,,,,,,,,,,,,,,,,,,,,,,,,,,,,,,,,,,,,,,,,,,,,,,,,,,,,,,,,,,,,,,,,,,,,,,,,,,,,,,,,,,,,,,,,,,,,,,,,,,372.26876939996146,373.218420899997,2,1,372.26876939996146,373.218420899997,373.218420899997,372.26876939996146,0.621292199997697,,,,,,,,,,,,,,,,,,,,,,,,,,,,,,,1103-t2,001,3,1,2022_Mar_22_1523,task_complete_blocked_LC_updated,2021.2.3,233.18774648186778,
,,,X,1,,,,,,,,,,,21,1,43,0,,,,,,,,,,,,,,,,,,,,,,,,,,,,,,,,,,,,,,,,,,,,,,,,,,,,,,,,,,,,,,,,,,,,,,,,,,,,,,,,,,,,,,,,,,,,,,,,,,,,,,,,,,,373.2723604000057,374.22314560000086,1,1,373.2723604000057,374.22314560000086,374.22013039997546,None,0.5024662000359967,,,,,,,,,,,,,,,,,,,,,,,,,,,,,,,1103-t2,001,3,1,2022_Mar_22_1523,task_complete_blocked_LC_updated,2021.2.3,233.18774648186778,
,,,X,1,,,,,,,,,,,22,0,44,0,,,,,,,,,,,,,,,,,,,,,,,,,,,,,,,,,,,,,,,,,,,,,,,,,,,,,,,,,,,,,,,,,,,,,,,,,,,,,,,,,,,,,,,,,,,,,,,,,,,,,,,,,,,374.2712823000038,375.21988719998626,1,1,374.2712823000038,375.21988719998626,375.21648519998416,None,0.5573707000003196,,,,,,,,,,,,,,,,,,,,,,,,,,,,,,,1103-t2,001,3,1,2022_Mar_22_1523,task_complete_blocked_LC_updated,2021.2.3,233.18774648186778,
,,,O,2,,,,,,,,,,,22,1,45,1,,,,,,,,,,,,,,,,,,,,,,,,,,,,,,,,,,,,,,,,,,,,,,,,,,,,,,,,,,,,,,,,,,,,,,,,,,,,,,,,,,,,,,,,,,,,,,,,,,,,,,,,,,,375.27036889997544,376.2213941999944,2,1,375.27036889997544,376.2213941999944,376.217799999984,375.27036889997544,0.48318510001990944,,,,,,,,,,,,,,,,,,,,,,,,,,,,,,,1103-t2,001,3,1,2022_Mar_22_1523,task_complete_blocked_LC_updated,2021.2.3,233.18774648186778,
,,,O,2,,,,,,,,,,,23,0,46,1,,,,,,,,,,,,,,,,,,,,,,,,,,,,,,,,,,,,,,,,,,,,,,,,,,,,,,,,,,,,,,,,,,,,,,,,,,,,,,,,,,,,,,,,,,,,,,,,,,,,,,,,,,,376.2761058000033,377.225231599994,2,1,376.2761058000033,377.225231599994,377.2214598999708,None,0.4732697999570519,,,,,,,,,,,,,,,,,,,,,,,,,,,,,,,1103-t2,001,3,1,2022_Mar_22_1523,task_complete_blocked_LC_updated,2021.2.3,233.18774648186778,
,,,X,1,,,,,,,,,,,23,1,47,0,,,,,,,,,,,,,,,,,,,,,,,,,,,,,,,,,,,,,,,,,,,,,,,,,,,,,,,,,,,,,,,,,,,,,,,,,,,,,,,,,,,,,,,,,,,,,,,,,,,,,,,,,,,377.28423449996626,378.2370675999555,1,1,377.28423449996626,378.2370675999555,378.22857859998476,None,0.4866555000189692,,,,,,,,,,,,,,,,,,,,,,,,,,,,,,,1103-t2,001,3,1,2022_Mar_22_1523,task_complete_blocked_LC_updated,2021.2.3,233.18774648186778,
,,,O,2,,,,,,,,,,,24,0,48,1,,,,,,,,,,,,,,,,,,,,,,,,,,,,,,,,,,,,,,,,,,,,,,,,,,,,,,,,,,,,,,,,,,,,,,,,,,,,,,,,,,,,,,,,,,,,,,,,,,,,,,,,,,,378.2721050999826,379.2257042999845,2,1,378.2721050999826,379.2257042999845,379.2257042999845,None,0.4707744999905117,,,,,,,,,,,,,,,,,,,,,,,,,,,,,,,1103-t2,001,3,1,2022_Mar_22_1523,task_complete_blocked_LC_updated,2021.2.3,233.18774648186778,
,,,X,1,,,,,,,,,,,24,1,49,0,,,,,,,,,,,,,,,,,,,,,,,,,,,,,,,,,,,,,,,,,,,,,,,,,,,,,,,,,,,,,,,,,,,,,,,,,,,,,,,,,,,,,,,,,,,,,,,,,,,,,,,,,,,379.27158589998726,380.2257332999725,1,1,379.27158589998726,380.2257332999725,380.21797989995684,None,0.3564771999954246,,,,,,,,,,,,,,,,,,,,,,,,,,,,,,,1103-t2,001,3,1,2022_Mar_22_1523,task_complete_blocked_LC_updated,2021.2.3,233.18774648186778,
,,,X,1,,,,,,,,,,,25,0,50,0,,,,,,,,,,,,,,,,,,,,,,,,,,,,,,,,,,,,,,,,,,,,,,,,,,,,,,,,,,,,,,,,,,,,,,,,,,,,,,,,,,,,,,,,,,,,,,,,,,,,,,,,,,,380.269038599974,381.2185792999808,1,1,380.269038599974,381.2185792999808,381.2185792999808,380.269038599974,0.5355969000374898,,,,,,,,,,,,,,,,,,,,,,,,,,,,,,,1103-t2,001,3,1,2022_Mar_22_1523,task_complete_blocked_LC_updated,2021.2.3,233.18774648186778,
,,,O,2,,,,,,,,,,,25,1,51,1,,,,,,,,,,,,,,,,,,,,,,,,,,,,,,,,,,,,,,,,,,,,,,,,,,,,,,,,,,,,,,,,,,,,,,,,,,,,,,,,,,,,,,,,,,,,,,,,,,,,,,,,,,,381.2742294999771,382.2257735999883,2,1,381.2742294999771,382.2257735999883,382.22250189998886,None,0.4790517999790609,,,,,,,,,,,,,,,,,,,,,,,,,,,,,,,1103-t2,001,3,1,2022_Mar_22_1523,task_complete_blocked_LC_updated,2021.2.3,233.18774648186778,
,,,O,2,,,,,,,,,,,26,0,52,1,,,,,,,,,,,,,,,,,,,,,,,,,,,,,,,,,,,,,,,,,,,,,,,,,,,,,,,,,,,,,,,,,,,,,,,,,,,,,,,,,,,,,,,,,,,,,,,,,,,,,,,,,,,382.2700213000062,383.22218859998975,2,1,382.2700213000062,383.22218859998975,383.2184605000075,None,0.6910643000155687,,,,,,,,,,,,,,,,,,,,,,,,,,,,,,,1103-t2,001,3,1,2022_Mar_22_1523,task_complete_blocked_LC_updated,2021.2.3,233.18774648186778,
,,,X,1,,,,,,,,,,,26,1,53,0,,,,,,,,,,,,,,,,,,,,,,,,,,,,,,,,,,,,,,,,,,,,,,,,,,,,,,,,,,,,,,,,,,,,,,,,,,,,,,,,,,,,,,,,,,,,,,,,,,,,,,,,,,,383.27585899998667,384.22862229996826,1,1,383.27585899998667,384.22862229996826,384.2195536000072,None,0.6202099000220187,,,,,,,,,,,,,,,,,,,,,,,,,,,,,,,1103-t2,001,3,1,2022_Mar_22_1523,task_complete_blocked_LC_updated,2021.2.3,233.18774648186778,
,,,O,2,,,,,,,,,,,27,0,54,1,,,,,,,,,,,,,,,,,,,,,,,,,,,,,,,,,,,,,,,,,,,,,,,,,,,,,,,,,,,,,,,,,,,,,,,,,,,,,,,,,,,,,,,,,,,,,,,,,,,,,,,,,,,384.27295509999385,385.2236908999621,2,1,384.27295509999385,385.2236908999621,385.22046290000435,None,0.5157189999590628,,,,,,,,,,,,,,,,,,,,,,,,,,,,,,,1103-t2,001,3,1,2022_Mar_22_1523,task_complete_blocked_LC_updated,2021.2.3,233.18774648186778,
,,,X,1,,,,,,,,,,,27,1,55,0,,,,,,,,,,,,,,,,,,,,,,,,,,,,,,,,,,,,,,,,,,,,,,,,,,,,,,,,,,,,,,,,,,,,,,,,,,,,,,,,,,,,,,,,,,,,,,,,,,,,,,,,,,,385.27296539995586,386.2231557999621,1,1,385.27296539995586,386.2231557999621,386.22012630000245,None,0.402029599994421,,,,,,,,,,,,,,,,,,,,,,,,,,,,,,,1103-t2,001,3,1,2022_Mar_22_1523,task_complete_blocked_LC_updated,2021.2.3,233.18774648186778,
,,,O,2,,,,,,,,,,,28,0,56,1,,,,,,,,,,,,,,,,,,,,,,,,,,,,,,,,,,,,,,,,,,,,,,,,,,,,,,,,,,,,,,,,,,,,,,,,,,,,,,,,,,,,,,,,,,,,,,,,,,,,,,,,,,,386.27226329996483,387.2221103999764,2,1,386.27226329996483,387.2221103999764,387.21903519995976,None,0.45376659999601543,,,,,,,,,,,,,,,,,,,,,,,,,,,,,,,1103-t2,001,3,1,2022_Mar_22_1523,task_complete_blocked_LC_updated,2021.2.3,233.18774648186778,
,,,X,1,,,,,,,,,,,28,1,57,0,,,,,,,,,,,,,,,,,,,,,,,,,,,,,,,,,,,,,,,,,,,,,,,,,,,,,,,,,,,,,,,,,,,,,,,,,,,,,,,,,,,,,,,,,,,,,,,,,,,,,,,,,,,387.2721339999698,388.2228813999682,1,1,387.2721339999698,388.2228813999682,388.21885309997015,None,0.5449784000520594,,,,,,,,,,,,,,,,,,,,,,,,,,,,,,,1103-t2,001,3,1,2022_Mar_22_1523,task_complete_blocked_LC_updated,2021.2.3,233.18774648186778,
,,,X,1,,,,,,,,,,,29,0,58,0,,,,,,,,,,,,,,,,,,,,,,,,,,,,,,,,,,,,,,,,,,,,,,,,,,,,,,,,,,,,,,,,,,,,,,,,,,,,,,,,,,,,,,,,,,,,,,,,,,,,,,,,,,,388.27107749995776,389.22138090000954,1,1,388.27107749995776,389.22138090000954,389.2187752999598,None,0.6868835999630392,,,,,,,,,,,,,,,,,,,,,,,,,,,,,,,1103-t2,001,3,1,2022_Mar_22_1523,task_complete_blocked_LC_updated,2021.2.3,233.18774648186778,
,,,O,2,,,,,,,,,,,29,1,59,1,,,,,,,,,,,,,,,,,,,,,,,,,,,,,,,,,,,,,,,,,,,,,,,,,,,,,,,,,,,,,,,,,,,,,,,,,,,,,,,,,,,,,,,,,,,,,,,,,,,,,,,,,,,389.27206849999493,390.2214847999858,2,1,389.27206849999493,390.2214847999858,390.21730509999907,None,0.6205093000316992,,,,,,,,,,,,,,,,,,,,,,,,,,,,,,,1103-t2,001,3,1,2022_Mar_22_1523,task_complete_blocked_LC_updated,2021.2.3,233.18774648186778,
,,,,,,,,,,,,,,,,,,,,,,,,,,,,,,,,,,,,,,,,,,,,,,,,,,,,,,,,,,,,,,,,,,,,,,,,,,,,,,,,,,,,,,,,,,,,,,,,,,,,,,,,,,,,,,,,,,,,,,,,,,,,,,,,,,,,,,390.2685187999741,None,space,32.280443499970715,395.27114689996233,None,,,,,,,,,,,,,,,,,,,,,,,,,1103-t2,001,3,1,2022_Mar_22_1523,task_complete_blocked_LC_updated,2021.2.3,233.18774648186778,
,,,,,,,,,,,,,,,,,,,,,,,,,,,,,,,,,,,,,,,,,,,,,,,,,,,,,,,,,,,,,,,,,,,,,,,,,,,,,,,,,,,,,,,,,,,,,,,427.5603261999786,None,5,20.221676200046204,427.5603261999786,None,,,,,,,,,,,,,,,,,,,,,,,,,,,,,,,,,,,,,,,,395.27114689996233,None,,,,,,,,,,,,,,,,,,,,,,,1103-t2,001,3,1,2022_Mar_22_1523,task_complete_blocked_LC_updated,2021.2.3,233.18774648186778,
stimulus_images/ADRYWOOD.jpg,SPACE,0,,,,,,,,,,,,,,,,,0,0,0,9,,,,,,,,,,,,,,,,,,,,,,,,,,,,,,,,,,,,,,,,,,,,,,,,,,,,,,,,,,,,,,,,,,,,,,,,,,,,,,,2.500019036233425e-06,447.8059526999714,449.8106179999886,447.8059526999714,449.8106179999886,448.80090869998094,449.8059683999745,448.80090869998094,449.8059683999745,449.8059683999745,None,5.9922189000062644,453.79263149999315,None,453.79263149999315,None,2,1.202999599976465,453.79263149999315,None,459.7939921999932,None,,,,,,,,,,,,,,,,,,,,,,,,,,,,,,,,,,,,,,,,,,1103-t2,001,3,1,2022_Mar_22_1523,task_complete_blocked_LC_updated,2021.2.3,233.18774648186778,
stimulus_images/ABALLBEAR.jpg,SPACE,0,,,,,,,,,,,,,,,,,0,1,1,4,,,,,,,,,,,,,,,,,,,,,,,,,,,,,,,,,,,,,,,,,,,,,,,,,,,,,,,,,,,,,,,,,,,,,,,,,,,,,,,14.997880399983842,462.8018479999737,464.80367369996384,462.8018479999737,464.80367369996384,463.7969591000001,464.80028460000176,463.7969591000001,464.80028460000176,464.79622799996287,None,20.997998900013044,468.79800829995656,None,468.79800829995656,None,3,1.0510248999926262,468.79800829995656,None,474.79882749996614,None,,,,,,,,,,,,,,,,,,,,,,,,,,,,,,,,,,,,,,,,,,1103-t2,001,3,1,2022_Mar_22_1523,task_complete_blocked_LC_updated,2021.2.3,233.18774648186778,
stimulus_images/A56THUND4.jpg,SPACE,0,,,,,,,,,,,,,,,,,0,2,2,1,,,,,,,,,,,,,,,,,,,,,,,,,,,,,,,,,,,,,,,,,,,,,,,,,,,,,,,,,,,,,,,,,,,,,,,,,,,,,,,29.002436199982185,476.8125677999924,478.81516110000666,476.8125677999924,478.81516110000666,477.80991309997626,478.8114966999856,477.80991309997626,478.8114966999856,478.8114966999856,None,35.00529900001129,482.80562090000603,None,482.80562090000603,None,3,0.906719799968414,482.80562090000603,None,488.8039885999751,None,,,,,,,,,,,,,,,,,,,,,,,,,,,,,,,,,,,,,,,,,,1103-t2,001,3,1,2022_Mar_22_1523,task_complete_blocked_LC_updated,2021.2.3,233.18774648186778,
stimulus_images/A_coin.jpg,SPACE,0,,,,,,,,,,,,,,,,,0,3,3,0,,,,,,,,,,,,,,,,,,,,,,,,,,,,,,,,,,,,,,,,,,,,,,,,,,,,,,,,,,,,,,,,,,,,,,,,,,,,,,,42.006074799981434,489.8168325999868,491.81893359997775,489.8168325999868,491.81893359997775,490.8174367999891,491.81893359997775,490.8174367999891,491.81893359997775,491.81893359997775,None,48.00949209998362,495.8101258999668,None,495.8101258999668,None,4,0.6315947999828495,495.8101258999668,None,501.8074697999982,None,,,,,,,,,,,,,,,,,,,,,,,,,,,,,,,,,,,,,,,,,,1103-t2,001,3,1,2022_Mar_22_1523,task_complete_blocked_LC_updated,2021.2.3,233.18774648186778,
stimulus_images/Abeaver.jpg,SPACE,0,,,,,,,,,,,,,,,,,0,4,4,5,,,,,,,,,,,,,,,,,,,,,,,,,,,,,,,,,,,,,,,,,,,,,,,,,,,,,,,,,,,,,,,,,,,,,,,,,,,,,,,56.010742700018454,503.8212114999769,505.8217502000043,503.8212114999769,505.8217502000043,504.8181067999685,505.8184744999744,504.8181067999685,505.8184744999744,505.8184744999744,None,62.01324379997095,509.8133278999594,None,509.8133278999594,None,3,0.9169703000225127,509.8133278999594,None,515.8144734000089,None,,,,,,,,,,,,,,,,,,,,,,,,,,,,,,,,,,,,,,,,,,1103-t2,001,3,1,2022_Mar_22_1523,task_complete_blocked_LC_updated,2021.2.3,233.18774648186778,
stimulus_images/Aammonitefo14.jpg,SPACE,1,,,,,,,,,,,,,,,,,0,5,5,2,,,,,,,,,,,,,,,,,,,,,,,,,,,,,,,,,,,,,,,,,,,,,,,,,,,,,,,,,,,,,,,,,,,,,,,,,,,,,,,70.01920039998367,517.8222753999871,519.8255541999824,517.8222753999871,519.8255541999824,518.819291599968,519.8216610999661,518.819291599968,519.8216610999661,519.8216610999661,None,76.02140199998394,523.8215911999578,None,523.8215911999578,None,3,1.078672599978745,523.8215911999578,None,529.8192323999829,None,,,,,,,,,,,,,,,,,,,,,,,,,,,,,,,,,,,,,,,,,,1103-t2,001,3,1,2022_Mar_22_1523,task_complete_blocked_LC_updated,2021.2.3,233.18774648186778,
stimulus_images/Acocktailumb4.jpg,SPACE,0,,,,,,,,,,,,,,,,,0,6,6,8,,,,,,,,,,,,,,,,,,,,,,,,,,,,,,,,,,,,,,,,,,,,,,,,,,,,,,,,,,,,,,,,,,,,,,,,,,,,,,,84.02305050002178,531.8322769000079,533.8314055000083,531.8322769000079,533.8314055000083,532.8346626999555,533.8383881999762,532.8346626999555,533.8383881999762,533.8277442000108,None,90.02563539997209,537.8260697000078,None,537.8260697000078,None,3,0.9593328000046313,537.8260697000078,None,543.8242008999805,None,,,,,,,,,,,,,,,,,,,,,,,,,,,,,,,,,,,,,,,,,,1103-t2,001,3,1,2022_Mar_22_1523,task_complete_blocked_LC_updated,2021.2.3,233.18774648186778,
stimulus_images/Abottleofbat2.jpg,SPACE,1,,,,,,,,,,,,,,,,,0,7,7,6,,,,,,,,,,,,,,,,,,,,,,,,,,,,,,,,,,,,,,,,,,,,,,,,,,,,,,,,,,,,,,,,,,,,,,,,,,,,,,,98.02752559998771,545.8381813999731,547.8372882999829,545.8381813999731,547.8372882999829,546.8342761999811,547.8336593999993,546.8342761999811,547.8336593999993,547.8336593999993,None,104.03042059997097,551.8310340999742,None,551.8310340999742,None,3,0.8827773000230081,551.8310340999742,None,557.8315462999744,None,,,,,,,,,,,,,,,,,,,,,,,,,,,,,,,,,,,,,,,,,,1103-t2,001,3,1,2022_Mar_22_1523,task_complete_blocked_LC_updated,2021.2.3,233.18774648186778,
stimulus_images/AARCCHAR2.jpg,SPACE,0,,,,,,,,,,,,,,,,,0,8,8,3,,,,,,,,,,,,,,,,,,,,,,,,,,,,,,,,,,,,,,,,,,,,,,,,,,,,,,,,,,,,,,,,,,,,,,,,,,,,,,,112.03561580000678,559.8388534999685,561.8376313999761,559.8388534999685,561.8376313999761,560.8384749999968,561.8376313999761,560.8384749999968,561.8376313999761,561.8345259999624,None,118.03790449997177,565.8384817999904,None,565.8384817999904,None,3,0.7947394999791868,565.8384817999904,None,571.8385899999994,None,,,,,,,,,,,,,,,,,,,,,,,,,,,,,,,,,,,,,,,,,,1103-t2,001,3,1,2022_Mar_22_1523,task_complete_blocked_LC_updated,2021.2.3,233.18774648186778,
stimulus_images/ACANDLE30.jpg,SPACE,0,,,,,,,,,,,,,,,,,0,9,9,7,,,,,,,,,,,,,,,,,,,,,,,,,,,,,,,,,,,,,,,,,,,,,,,,,,,,,,,,,,,,,,,,,,,,,,,,,,,,,,,125.04043280001497,572.8500870999997,574.8488911999739,572.8500870999997,574.8488911999739,573.848542199994,574.8488911999739,573.848542199994,574.8488911999739,574.8488911999739,None,131.04256370000076,578.8429651999613,None,578.8429651999613,None,3,0.7159702000208199,578.8429651999613,None,584.8449292999576,None,,,,,,,,,,,,,,,,,,,,,,,,,,,,,,,,,,,,,,,,,,1103-t2,001,3,1,2022_Mar_22_1523,task_complete_blocked_LC_updated,2021.2.3,233.18774648186778,
stimulus_images/A_flower.jpg,SPACE,0,,,,,,,,,,,,,,,,,,,,,0,0,0,7,,,,,,,,,,,,,,,,,,,,,,,,,,,,,,,,,,,,,,,,,,,,,,,,,,,,,,,,,,,,,,,,,,,,,,,,,,,138.05446790001588,585.8638816999737,587.8617692000116,585.8638816999737,587.8617692000116,586.8593944999739,587.8617692000116,586.8593944999739,587.8617692000116,587.8588075999869,None,144.0511582000181,591.8515747999772,None,591.8515747999772,None,3,0.9668415000196546,591.8515747999772,None,597.8527974999743,None,,,,,,,,,,,,,,,,,,,,,,,,,,,,,,,,,,,,,,,,,,1103-t2,001,3,1,2022_Mar_22_1523,task_complete_blocked_LC_updated,2021.2.3,233.18774648186778,
stimulus_images/AMUSISTA2.jpg,SPACE,0,,,,,,,,,,,,,,,,,,,,,0,1,1,2,,,,,,,,,,,,,,,,,,,,,,,,,,,,,,,,,,,,,,,,,,,,,,,,,,,,,,,,,,,,,,,,,,,,,,,,,,,153.05627280002227,600.8664798999671,602.8691377000068,600.8664798999671,602.8691377000068,601.8594941999763,602.8631351999938,601.8594941999763,602.8631351999938,602.8631351999938,None,159.05922060000012,606.8594461999601,None,606.8594461999601,None,3,0.9618965999688953,606.8594461999601,None,612.8641305000056,None,,,,,,,,,,,,,,,,,,,,,,,,,,,,,,,,,,,,,,,,,,1103-t2,001,3,1,2022_Mar_22_1523,task_complete_blocked_LC_updated,2021.2.3,233.18774648186778,
stimulus_images/weddingdress.jpg,SPACE,0,,,,,,,,,,,,,,,,,,,,,0,2,2,6,,,,,,,,,,,,,,,,,,,,,,,,,,,,,,,,,,,,,,,,,,,,,,,,,,,,,,,,,,,,,,,,,,,,,,,,,,,167.06508410000242,614.8757609999739,616.8761218999862,614.8757609999739,616.8761218999862,615.8721677999711,616.8723594999756,615.8721677999711,616.8723594999756,616.8723594999756,None,173.06760890001897,620.8678201999865,None,620.8678201999865,None,3,0.6872670000302605,620.8678201999865,None,626.8664096999564,None,,,,,,,,,,,,,,,,,,,,,,,,,,,,,,,,,,,,,,,,,,1103-t2,001,3,1,2022_Mar_22_1523,task_complete_blocked_LC_updated,2021.2.3,233.18774648186778,
stimulus_images/Aancientston3.jpg,SPACE,0,,,,,,,,,,,,,,,,,,,,,0,3,3,9,,,,,,,,,,,,,,,,,,,,,,,,,,,,,,,,,,,,,,,,,,,,,,,,,,,,,,,,,,,,,,,,,,,,,,,,,,,182.06898899999214,629.8793085999787,631.8830234999768,629.8793085999787,631.8830234999768,630.8854628999834,631.8856877000071,630.8854628999834,631.8856877000071,631.873440299998,None,188.07195110002067,635.8720204999554,None,635.8720204999554,None,1,0.7841966999694705,635.8720204999554,None,641.8736279999721,None,,,,,,,,,,,,,,,,,,,,,,,,,,,,,,,,,,,,,,,,,,1103-t2,001,3,1,2022_Mar_22_1523,task_complete_blocked_LC_updated,2021.2.3,233.18774648186778,
stimulus_images/beanbagchair.jpg,SPACE,0,,,,,,,,,,,,,,,,,,,,,0,4,4,5,,,,,,,,,,,,,,,,,,,,,,,,,,,,,,,,,,,,,,,,,,,,,,,,,,,,,,,,,,,,,,,,,,,,,,,,,,,197.0776558999787,644.8870907999808,646.8929116000072,644.8870907999808,646.8929116000072,645.8850616000127,646.8929116000072,645.8850616000127,646.8929116000072,646.8896176000126,None,203.08018689998426,650.8806613999768,None,650.8806613999768,None,4,1.4208549000322819,650.8806613999768,None,656.8801263999776,None,,,,,,,,,,,,,,,,,,,,,,,,,,,,,,,,,,,,,,,,,,1103-t2,001,3,1,2022_Mar_22_1523,task_complete_blocked_LC_updated,2021.2.3,233.18774648186778,
stimulus_images/AABSTRACT.jpg,SPACE,1,,,,,,,,,,,,,,,,,,,,,0,5,5,8,,,,,,,,,,,,,,,,,,,,,,,,,,,,,,,,,,,,,,,,,,,,,,,,,,,,,,,,,,,,,,,,,,,,,,,,,,,211.0821890999796,658.8909539000015,660.8891896000132,658.8909539000015,660.8891896000132,659.8890950999921,660.8891896000132,659.8890950999921,660.8891896000132,660.8857940000016,None,217.08447200001683,664.8846179000102,None,664.8846179000102,None,3,0.3566966999787837,664.8846179000102,None,670.8842662000097,None,,,,,,,,,,,,,,,,,,,,,,,,,,,,,,,,,,,,,,,,,,1103-t2,001,3,1,2022_Mar_22_1523,task_complete_blocked_LC_updated,2021.2.3,233.18774648186778,
stimulus_images/Aribbon21.jpg,SPACE,0,,,,,,,,,,,,,,,,,,,,,0,6,6,3,,,,,,,,,,,,,,,,,,,,,,,,,,,,,,,,,,,,,,,,,,,,,,,,,,,,,,,,,,,,,,,,,,,,,,,,,,,224.08615230000578,671.8956735999673,673.8963140000124,671.8956735999673,673.8963140000124,672.8936284999945,673.8928360999562,672.8936284999945,673.8928360999562,673.8928360999562,None,230.08915720001096,677.8892706999904,None,677.8892706999904,None,3,1.3489750999724492,677.8892706999904,None,683.8871426999685,None,,,,,,,,,,,,,,,,,,,,,,,,,,,,,,,,,,,,,,,,,,1103-t2,001,3,1,2022_Mar_22_1523,task_complete_blocked_LC_updated,2021.2.3,233.18774648186778,
stimulus_images/AGLASSFL4.jpg,SPACE,1,,,,,,,,,,,,,,,,,,,,,0,7,7,0,,,,,,,,,,,,,,,,,,,,,,,,,,,,,,,,,,,,,,,,,,,,,,,,,,,,,,,,,,,,,,,,,,,,,,,,,,,237.09041649999563,684.8937333999784,686.8944932000013,684.8937333999784,686.8944932000013,685.8933298999909,686.8944932000013,685.8933298999909,686.8944932000013,686.8922086000093,None,243.0927913999767,690.893167799979,None,690.893167799979,None,3,0.9996233000420034,690.893167799979,None,696.8939412999898,None,,,,,,,,,,,,,,,,,,,,,,,,,,,,,,,,,,,,,,,,,,1103-t2,001,3,1,2022_Mar_22_1523,task_complete_blocked_LC_updated,2021.2.3,233.18774648186778,
stimulus_images/AHIGCHAIR.jpg,SPACE,0,,,,,,,,,,,,,,,,,,,,,0,8,8,1,,,,,,,,,,,,,,,,,,,,,,,,,,,,,,,,,,,,,,,,,,,,,,,,,,,,,,,,,,,,,,,,,,,,,,,,,,,252.09460160002345,699.8993315999978,701.8973967999918,699.8993315999978,701.8973967999918,700.8932118999655,701.8942419000086,700.8932118999655,701.8942419000086,701.8942419000086,None,258.09495469997637,705.8951656999998,None,705.8951656999998,None,3,0.8653546000132337,705.8951656999998,None,711.8985886999872,None,,,,,,,,,,,,,,,,,,,,,,,,,,,,,,,,,,,,,,,,,,1103-t2,001,3,1,2022_Mar_22_1523,task_complete_blocked_LC_updated,2021.2.3,233.18774648186778,
stimulus_images/Astereo30.jpg,SPACE,1,,,,,,,,,,,,,,,,,,,,,0,9,9,4,,,,,,,,,,,,,,,,,,,,,,,,,,,,,,,,,,,,,,,,,,,,,,,,,,,,,,,,,,,,,,,,,,,,,,,,,,,267.0988573000068,714.9022227000096,716.9016839999822,714.9022227000096,716.9016839999822,715.8984636999667,716.8973537000129,715.8984636999667,716.8973537000129,716.8973537000129,None,273.1015155999921,720.9025743000093,None,720.9025743000093,None,4,1.3702267000335269,720.9025743000093,None,726.9020590999862,None,,,,,,,,,,,,,,,,,,,,,,,,,,,,,,,,,,,,,,,,,,1103-t2,001,3,1,2022_Mar_22_1523,task_complete_blocked_LC_updated,2021.2.3,233.18774648186778,
,,,X,1,,,,,,,,,,,,,,,,,,,,,,,0,0,0,0,,,,,,,,,,,,,,,,,,,,,,,,,,,,,,,,,,,,,,,,,,,,,,,,,,,,,,,,,,,,,,,,,,,,,,,,,,,,,,,,,,,,,,,,,,,,,727.9025269999984,None,730.9084508999949,731.859318999981,1,1,730.9084508999949,731.859318999981,731.8547560999868,None,0.6379866999923252,,,,,,,,,,,,,,,,,,,,,,,,,,,,,,,1103-t2,001,3,1,2022_Mar_22_1523,task_complete_blocked_LC_updated,2021.2.3,233.18774648186778,
,,,O,2,,,,,,,,,,,,,,,,,,,,,,,0,1,1,1,,,,,,,,,,,,,,,,,,,,,,,,,,,,,,,,,,,,,,,,,,,,,,,,,,,,,,,,,,,,,,,,,,,,,,,,,,,,,,,,,,,,,,,,,,,,,,,731.9068182999617,732.8570202999981,2,1,731.9068182999617,732.8570202999981,732.8546335999854,None,0.3633568999939598,,,,,,,,,,,,,,,,,,,,,,,,,,,,,,,1103-t2,001,3,1,2022_Mar_22_1523,task_complete_blocked_LC_updated,2021.2.3,233.18774648186778,
,,,X,1,,,,,,,,,,,,,,,,,,,,,,,1,0,2,0,,,,,,,,,,,,,,,,,,,,,,,,,,,,,,,,,,,,,,,,,,,,,,,,,,,,,,,,,,,,,,,,,,,,,,,,,,,,,,,,,,,,,,,,,,,,,,,732.9067648999626,733.8551424999605,1,1,732.9067648999626,733.8551424999605,733.8515540999942,None,0.49134999996749684,,,,,,,,,,,,,,,,,,,,,,,,,,,,,,,1103-t2,001,3,1,2022_Mar_22_1523,task_complete_blocked_LC_updated,2021.2.3,233.18774648186778,
,,,O,2,,,,,,,,,,,,,,,,,,,,,,,1,1,3,1,,,,,,,,,,,,,,,,,,,,,,,,,,,,,,,,,,,,,,,,,,,,,,,,,,,,,,,,,,,,,,,,,,,,,,,,,,,,,,,,,,,,,,,,,,,,,,,733.9040591999656,734.8518655999796,2,1,733.9040591999656,734.8518655999796,734.8518655999796,733.9040591999656,0.32093310001073405,,,,,,,,,,,,,,,,,,,,,,,,,,,,,,,1103-t2,001,3,1,2022_Mar_22_1523,task_complete_blocked_LC_updated,2021.2.3,233.18774648186778,
,,,X,1,,,,,,,,,,,,,,,,,,,,,,,2,0,4,0,,,,,,,,,,,,,,,,,,,,,,,,,,,,,,,,,,,,,,,,,,,,,,,,,,,,,,,,,,,,,,,,,,,,,,,,,,,,,,,,,,,,,,,,,,,,,,,734.903760999965,735.8529857000103,1,1,734.903760999965,735.8529857000103,735.8529857000103,734.903760999965,0.42293420003261417,,,,,,,,,,,,,,,,,,,,,,,,,,,,,,,1103-t2,001,3,1,2022_Mar_22_1523,task_complete_blocked_LC_updated,2021.2.3,233.18774648186778,
,,,O,2,,,,,,,,,,,,,,,,,,,,,,,2,1,5,1,,,,,,,,,,,,,,,,,,,,,,,,,,,,,,,,,,,,,,,,,,,,,,,,,,,,,,,,,,,,,,,,,,,,,,,,,,,,,,,,,,,,,,,,,,,,,,,735.9065975999692,736.8571308999672,2,1,735.9065975999692,736.8571308999672,736.85422009998,None,0.4085719999857247,,,,,,,,,,,,,,,,,,,,,,,,,,,,,,,1103-t2,001,3,1,2022_Mar_22_1523,task_complete_blocked_LC_updated,2021.2.3,233.18774648186778,
,,,O,2,,,,,,,,,,,,,,,,,,,,,,,3,0,6,1,,,,,,,,,,,,,,,,,,,,,,,,,,,,,,,,,,,,,,,,,,,,,,,,,,,,,,,,,,,,,,,,,,,,,,,,,,,,,,,,,,,,,,,,,,,,,,,736.9058323999634,737.8576003999915,2,1,736.9058323999634,737.8576003999915,737.8542790999636,None,0.4038713000481948,,,,,,,,,,,,,,,,,,,,,,,,,,,,,,,1103-t2,001,3,1,2022_Mar_22_1523,task_complete_blocked_LC_updated,2021.2.3,233.18774648186778,
,,,X,1,,,,,,,,,,,,,,,,,,,,,,,3,1,7,0,,,,,,,,,,,,,,,,,,,,,,,,,,,,,,,,,,,,,,,,,,,,,,,,,,,,,,,,,,,,,,,,,,,,,,,,,,,,,,,,,,,,,,,,,,,,,,,737.9068541000015,738.8572759999661,1,1,737.9068541000015,738.8572759999661,738.8531187999761,None,0.3636771999881603,,,,,,,,,,,,,,,,,,,,,,,,,,,,,,,1103-t2,001,3,1,2022_Mar_22_1523,task_complete_blocked_LC_updated,2021.2.3,233.18774648186778,
,,,O,2,,,,,,,,,,,,,,,,,,,,,,,4,0,8,1,,,,,,,,,,,,,,,,,,,,,,,,,,,,,,,,,,,,,,,,,,,,,,,,,,,,,,,,,,,,,,,,,,,,,,,,,,,,,,,,,,,,,,,,,,,,,,,738.9053099000012,739.8533531999565,2,1,738.9053099000012,739.8533531999565,739.8533531999565,738.9053099000012,0.5176502999966033,,,,,,,,,,,,,,,,,,,,,,,,,,,,,,,1103-t2,001,3,1,2022_Mar_22_1523,task_complete_blocked_LC_updated,2021.2.3,233.18774648186778,
,,,X,1,,,,,,,,,,,,,,,,,,,,,,,4,1,9,0,,,,,,,,,,,,,,,,,,,,,,,,,,,,,,,,,,,,,,,,,,,,,,,,,,,,,,,,,,,,,,,,,,,,,,,,,,,,,,,,,,,,,,,,,,,,,,,739.9077655999572,740.8580443999963,1,1,739.9077655999572,740.8580443999963,740.8557784999721,None,0.41516769997542724,,,,,,,,,,,,,,,,,,,,,,,,,,,,,,,1103-t2,001,3,1,2022_Mar_22_1523,task_complete_blocked_LC_updated,2021.2.3,233.18774648186778,
,,,O,2,,,,,,,,,,,,,,,,,,,,,,,5,0,10,1,,,,,,,,,,,,,,,,,,,,,,,,,,,,,,,,,,,,,,,,,,,,,,,,,,,,,,,,,,,,,,,,,,,,,,,,,,,,,,,,,,,,,,,,,,,,,,,740.9065717000049,741.8591096999589,2,1,740.9065717000049,741.8591096999589,741.8552208999754,None,0.4066906999796629,,,,,,,,,,,,,,,,,,,,,,,,,,,,,,,1103-t2,001,3,1,2022_Mar_22_1523,task_complete_blocked_LC_updated,2021.2.3,233.18774648186778,
,,,X,1,,,,,,,,,,,,,,,,,,,,,,,5,1,11,0,,,,,,,,,,,,,,,,,,,,,,,,,,,,,,,,,,,,,,,,,,,,,,,,,,,,,,,,,,,,,,,,,,,,,,,,,,,,,,,,,,,,,,,,,,,,,,,741.9074020999833,742.8595005999669,1,1,741.9074020999833,742.8595005999669,742.8595005999669,None,0.35038150002947077,,,,,,,,,,,,,,,,,,,,,,,,,,,,,,,1103-t2,001,3,1,2022_Mar_22_1523,task_complete_blocked_LC_updated,2021.2.3,233.18774648186778,
,,,O,2,,,,,,,,,,,,,,,,,,,,,,,6,0,12,1,,,,,,,,,,,,,,,,,,,,,,,,,,,,,,,,,,,,,,,,,,,,,,,,,,,,,,,,,,,,,,,,,,,,,,,,,,,,,,,,,,,,,,,,,,,,,,,742.9069340999704,743.8591924000066,2,1,742.9069340999704,743.8591924000066,743.8558795999852,None,0.46412290004082024,,,,,,,,,,,,,,,,,,,,,,,,,,,,,,,1103-t2,001,3,1,2022_Mar_22_1523,task_complete_blocked_LC_updated,2021.2.3,233.18774648186778,
,,,X,1,,,,,,,,,,,,,,,,,,,,,,,6,1,13,0,,,,,,,,,,,,,,,,,,,,,,,,,,,,,,,,,,,,,,,,,,,,,,,,,,,,,,,,,,,,,,,,,,,,,,,,,,,,,,,,,,,,,,,,,,,,,,,743.9077507999609,744.8577571999631,1,1,743.9077507999609,744.8577571999631,744.8540585999726,None,0.3512013999861665,,,,,,,,,,,,,,,,,,,,,,,,,,,,,,,1103-t2,001,3,1,2022_Mar_22_1523,task_complete_blocked_LC_updated,2021.2.3,233.18774648186778,
,,,O,2,,,,,,,,,,,,,,,,,,,,,,,7,0,14,1,,,,,,,,,,,,,,,,,,,,,,,,,,,,,,,,,,,,,,,,,,,,,,,,,,,,,,,,,,,,,,,,,,,,,,,,,,,,,,,,,,,,,,,,,,,,,,,744.9071549999644,745.8586968999589,2,1,744.9071549999644,745.8586968999589,745.8559057000093,None,0.7326611000462435,,,,,,,,,,,,,,,,,,,,,,,,,,,,,,,1103-t2,001,3,1,2022_Mar_22_1523,task_complete_blocked_LC_updated,2021.2.3,233.18774648186778,
,,,X,1,,,,,,,,,,,,,,,,,,,,,,,7,1,15,0,,,,,,,,,,,,,,,,,,,,,,,,,,,,,,,,,,,,,,,,,,,,,,,,,,,,,,,,,,,,,,,,,,,,,,,,,,,,,,,,,,,,,,,,,,,,,,,745.9068018000107,746.8558639999828,1,1,745.9068018000107,746.8558639999828,746.8524289999623,None,0.44503969996003434,,,,,,,,,,,,,,,,,,,,,,,,,,,,,,,1103-t2,001,3,1,2022_Mar_22_1523,task_complete_blocked_LC_updated,2021.2.3,233.18774648186778,
,,,O,2,,,,,,,,,,,,,,,,,,,,,,,8,0,16,1,,,,,,,,,,,,,,,,,,,,,,,,,,,,,,,,,,,,,,,,,,,,,,,,,,,,,,,,,,,,,,,,,,,,,,,,,,,,,,,,,,,,,,,,,,,,,,,746.9053436999675,747.8575864000013,2,1,746.9053436999675,747.8575864000013,747.8538144999766,746.9053436999675,0.4098445000126958,,,,,,,,,,,,,,,,,,,,,,,,,,,,,,,1103-t2,001,3,1,2022_Mar_22_1523,task_complete_blocked_LC_updated,2021.2.3,233.18774648186778,
,,,X,1,,,,,,,,,,,,,,,,,,,,,,,8,1,17,0,,,,,,,,,,,,,,,,,,,,,,,,,,,,,,,,,,,,,,,,,,,,,,,,,,,,,,,,,,,,,,,,,,,,,,,,,,,,,,,,,,,,,,,,,,,,,,,747.9073010999709,748.8574878000072,1,1,747.9073010999709,748.8574878000072,748.8547574999975,None,0.4674513000063598,,,,,,,,,,,,,,,,,,,,,,,,,,,,,,,1103-t2,001,3,1,2022_Mar_22_1523,task_complete_blocked_LC_updated,2021.2.3,233.18774648186778,
,,,X,1,,,,,,,,,,,,,,,,,,,,,,,9,0,18,0,,,,,,,,,,,,,,,,,,,,,,,,,,,,,,,,,,,,,,,,,,,,,,,,,,,,,,,,,,,,,,,,,,,,,,,,,,,,,,,,,,,,,,,,,,,,,,,748.9068839999964,749.8579366999911,1,1,748.9068839999964,749.8579366999911,749.854268199997,None,0.5958118999842554,,,,,,,,,,,,,,,,,,,,,,,,,,,,,,,1103-t2,001,3,1,2022_Mar_22_1523,task_complete_blocked_LC_updated,2021.2.3,233.18774648186778,
,,,O,2,,,,,,,,,,,,,,,,,,,,,,,9,1,19,1,,,,,,,,,,,,,,,,,,,,,,,,,,,,,,,,,,,,,,,,,,,,,,,,,,,,,,,,,,,,,,,,,,,,,,,,,,,,,,,,,,,,,,,,,,,,,,,749.9077672999701,750.8587792000035,2,1,749.9077672999701,750.8587792000035,750.8555639999686,None,0.5459310000296682,,,,,,,,,,,,,,,,,,,,,,,,,,,,,,,1103-t2,001,3,1,2022_Mar_22_1523,task_complete_blocked_LC_updated,2021.2.3,233.18774648186778,
,,,O,2,,,,,,,,,,,,,,,,,,,,,,,10,0,20,1,,,,,,,,,,,,,,,,,,,,,,,,,,,,,,,,,,,,,,,,,,,,,,,,,,,,,,,,,,,,,,,,,,,,,,,,,,,,,,,,,,,,,,,,,,,,,,,750.9057843000046,751.8575262000086,2,1,750.9057843000046,751.8575262000086,751.8550686999806,None,0.41704739996930584,,,,,,,,,,,,,,,,,,,,,,,,,,,,,,,1103-t2,001,3,1,2022_Mar_22_1523,task_complete_blocked_LC_updated,2021.2.3,233.18774648186778,
,,,X,1,,,,,,,,,,,,,,,,,,,,,,,10,1,21,0,,,,,,,,,,,,,,,,,,,,,,,,,,,,,,,,,,,,,,,,,,,,,,,,,,,,,,,,,,,,,,,,,,,,,,,,,,,,,,,,,,,,,,,,,,,,,,,751.9075345000019,752.8575460999855,1,1,751.9075345000019,752.8575460999855,752.8551417000126,None,0.5514696999453008,,,,,,,,,,,,,,,,,,,,,,,,,,,,,,,1103-t2,001,3,1,2022_Mar_22_1523,task_complete_blocked_LC_updated,2021.2.3,233.18774648186778,
,,,O,2,,,,,,,,,,,,,,,,,,,,,,,11,0,22,1,,,,,,,,,,,,,,,,,,,,,,,,,,,,,,,,,,,,,,,,,,,,,,,,,,,,,,,,,,,,,,,,,,,,,,,,,,,,,,,,,,,,,,,,,,,,,,,752.9068331999588,753.8581613000133,2,1,752.9068331999588,753.8581613000133,753.8551164999953,None,0.5597290999721736,,,,,,,,,,,,,,,,,,,,,,,,,,,,,,,1103-t2,001,3,1,2022_Mar_22_1523,task_complete_blocked_LC_updated,2021.2.3,233.18774648186778,
,,,X,1,,,,,,,,,,,,,,,,,,,,,,,11,1,23,0,,,,,,,,,,,,,,,,,,,,,,,,,,,,,,,,,,,,,,,,,,,,,,,,,,,,,,,,,,,,,,,,,,,,,,,,,,,,,,,,,,,,,,,,,,,,,,,753.9069343999727,754.8582552999724,1,1,753.9069343999727,754.8582552999724,754.8551508999662,None,0.5370916000101715,,,,,,,,,,,,,,,,,,,,,,,,,,,,,,,1103-t2,001,3,1,2022_Mar_22_1523,task_complete_blocked_LC_updated,2021.2.3,233.18774648186778,
,,,O,2,,,,,,,,,,,,,,,,,,,,,,,12,0,24,1,,,,,,,,,,,,,,,,,,,,,,,,,,,,,,,,,,,,,,,,,,,,,,,,,,,,,,,,,,,,,,,,,,,,,,,,,,,,,,,,,,,,,,,,,,,,,,,754.9067676999839,755.8559349999996,2,1,754.9067676999839,755.8559349999996,755.8530148999998,None,0.6492242999956943,,,,,,,,,,,,,,,,,,,,,,,,,,,,,,,1103-t2,001,3,1,2022_Mar_22_1523,task_complete_blocked_LC_updated,2021.2.3,233.18774648186778,
,,,X,1,,,,,,,,,,,,,,,,,,,,,,,12,1,25,0,,,,,,,,,,,,,,,,,,,,,,,,,,,,,,,,,,,,,,,,,,,,,,,,,,,,,,,,,,,,,,,,,,,,,,,,,,,,,,,,,,,,,,,,,,,,,,,755.9070080000092,756.8601479000063,1,1,755.9070080000092,756.8601479000063,756.8559382999665,None,0.6507656999747269,,,,,,,,,,,,,,,,,,,,,,,,,,,,,,,1103-t2,001,3,1,2022_Mar_22_1523,task_complete_blocked_LC_updated,2021.2.3,233.18774648186778,
,,,O,2,,,,,,,,,,,,,,,,,,,,,,,13,0,26,1,,,,,,,,,,,,,,,,,,,,,,,,,,,,,,,,,,,,,,,,,,,,,,,,,,,,,,,,,,,,,,,,,,,,,,,,,,,,,,,,,,,,,,,,,,,,,,,756.906688899966,757.8566428999766,2,1,756.906688899966,757.8566428999766,757.8541518999846,None,0.4543273999588564,,,,,,,,,,,,,,,,,,,,,,,,,,,,,,,1103-t2,001,3,1,2022_Mar_22_1523,task_complete_blocked_LC_updated,2021.2.3,233.18774648186778,
,,,X,1,,,,,,,,,,,,,,,,,,,,,,,13,1,27,0,,,,,,,,,,,,,,,,,,,,,,,,,,,,,,,,,,,,,,,,,,,,,,,,,,,,,,,,,,,,,,,,,,,,,,,,,,,,,,,,,,,,,,,,,,,,,,,757.9067148999893,758.8580772000132,1,1,757.9067148999893,758.8580772000132,758.8539562000078,None,0.48885630001313984,,,,,,,,,,,,,,,,,,,,,,,,,,,,,,,1103-t2,001,3,1,2022_Mar_22_1523,task_complete_blocked_LC_updated,2021.2.3,233.18774648186778,
,,,O,2,,,,,,,,,,,,,,,,,,,,,,,14,0,28,1,,,,,,,,,,,,,,,,,,,,,,,,,,,,,,,,,,,,,,,,,,,,,,,,,,,,,,,,,,,,,,,,,,,,,,,,,,,,,,,,,,,,,,,,,,,,,,,758.9053088999935,759.8573829999659,2,1,758.9053088999935,759.8573829999659,759.8573829999659,758.9053088999935,0.5195336000178941,,,,,,,,,,,,,,,,,,,,,,,,,,,,,,,1103-t2,001,3,1,2022_Mar_22_1523,task_complete_blocked_LC_updated,2021.2.3,233.18774648186778,
,,,X,1,,,,,,,,,,,,,,,,,,,,,,,14,1,29,0,,,,,,,,,,,,,,,,,,,,,,,,,,,,,,,,,,,,,,,,,,,,,,,,,,,,,,,,,,,,,,,,,,,,,,,,,,,,,,,,,,,,,,,,,,,,,,,759.9065944000031,760.8587527999771,1,1,759.9065944000031,760.8587527999771,760.8555461000069,None,0.4004805000149645,,,,,,,,,,,,,,,,,,,,,,,,,,,,,,,1103-t2,001,3,1,2022_Mar_22_1523,task_complete_blocked_LC_updated,2021.2.3,233.18774648186778,
,,,O,2,,,,,,,,,,,,,,,,,,,,,,,15,0,30,1,,,,,,,,,,,,,,,,,,,,,,,,,,,,,,,,,,,,,,,,,,,,,,,,,,,,,,,,,,,,,,,,,,,,,,,,,,,,,,,,,,,,,,,,,,,,,,,760.9068530999939,761.8648452999769,2,1,760.9068530999939,761.8648452999769,761.8567203999846,None,0.39492360001895577,,,,,,,,,,,,,,,,,,,,,,,,,,,,,,,1103-t2,001,3,1,2022_Mar_22_1523,task_complete_blocked_LC_updated,2021.2.3,233.18774648186778,
,,,X,1,,,,,,,,,,,,,,,,,,,,,,,15,1,31,0,,,,,,,,,,,,,,,,,,,,,,,,,,,,,,,,,,,,,,,,,,,,,,,,,,,,,,,,,,,,,,,,,,,,,,,,,,,,,,,,,,,,,,,,,,,,,,,761.9184904999565,762.8717830000096,1,1,761.9184904999565,762.8717830000096,762.8630319999647,None,0.5963892000145279,,,,,,,,,,,,,,,,,,,,,,,,,,,,,,,1103-t2,001,3,1,2022_Mar_22_1523,task_complete_blocked_LC_updated,2021.2.3,233.18774648186778,
,,,O,2,,,,,,,,,,,,,,,,,,,,,,,16,0,32,1,,,,,,,,,,,,,,,,,,,,,,,,,,,,,,,,,,,,,,,,,,,,,,,,,,,,,,,,,,,,,,,,,,,,,,,,,,,,,,,,,,,,,,,,,,,,,,,762.9076209999621,763.8593134999974,2,1,762.9076209999621,763.8593134999974,763.8558531999588,None,0.5824003999587148,,,,,,,,,,,,,,,,,,,,,,,,,,,,,,,1103-t2,001,3,1,2022_Mar_22_1523,task_complete_blocked_LC_updated,2021.2.3,233.18774648186778,
,,,X,1,,,,,,,,,,,,,,,,,,,,,,,16,1,33,0,,,,,,,,,,,,,,,,,,,,,,,,,,,,,,,,,,,,,,,,,,,,,,,,,,,,,,,,,,,,,,,,,,,,,,,,,,,,,,,,,,,,,,,,,,,,,,,763.9073239999707,764.8585387999774,1,1,763.9073239999707,764.8585387999774,764.8552121999674,None,0.6556218000478111,,,,,,,,,,,,,,,,,,,,,,,,,,,,,,,1103-t2,001,3,1,2022_Mar_22_1523,task_complete_blocked_LC_updated,2021.2.3,233.18774648186778,
,,,O,2,,,,,,,,,,,,,,,,,,,,,,,17,0,34,1,,,,,,,,,,,,,,,,,,,,,,,,,,,,,,,,,,,,,,,,,,,,,,,,,,,,,,,,,,,,,,,,,,,,,,,,,,,,,,,,,,,,,,,,,,,,,,,764.907865999965,765.8604924000101,2,1,764.907865999965,765.8604924000101,765.8576120999642,None,0.5370705999666825,,,,,,,,,,,,,,,,,,,,,,,,,,,,,,,1103-t2,001,3,1,2022_Mar_22_1523,task_complete_blocked_LC_updated,2021.2.3,233.18774648186778,
,,,X,1,,,,,,,,,,,,,,,,,,,,,,,17,1,35,0,,,,,,,,,,,,,,,,,,,,,,,,,,,,,,,,,,,,,,,,,,,,,,,,,,,,,,,,,,,,,,,,,,,,,,,,,,,,,,,,,,,,,,,,,,,,,,,765.907106300001,766.860368499998,1,1,765.907106300001,766.860368499998,766.8574075999786,None,0.5534960000077263,,,,,,,,,,,,,,,,,,,,,,,,,,,,,,,1103-t2,001,3,1,2022_Mar_22_1523,task_complete_blocked_LC_updated,2021.2.3,233.18774648186778,
,,,O,2,,,,,,,,,,,,,,,,,,,,,,,18,0,36,1,,,,,,,,,,,,,,,,,,,,,,,,,,,,,,,,,,,,,,,,,,,,,,,,,,,,,,,,,,,,,,,,,,,,,,,,,,,,,,,,,,,,,,,,,,,,,,,766.9072523000068,767.8600237999926,2,1,766.9072523000068,767.8600237999926,767.8568922000122,None,0.877966700005345,,,,,,,,,,,,,,,,,,,,,,,,,,,,,,,1103-t2,001,3,1,2022_Mar_22_1523,task_complete_blocked_LC_updated,2021.2.3,233.18774648186778,
,,,X,1,,,,,,,,,,,,,,,,,,,,,,,18,1,37,0,,,,,,,,,,,,,,,,,,,,,,,,,,,,,,,,,,,,,,,,,,,,,,,,,,,,,,,,,,,,,,,,,,,,,,,,,,,,,,,,,,,,,,,,,,,,,,,767.9068163000047,768.8592398999608,1,1,767.9068163000047,768.8592398999608,768.8568416999769,None,0.5832886999705806,,,,,,,,,,,,,,,,,,,,,,,,,,,,,,,1103-t2,001,3,1,2022_Mar_22_1523,task_complete_blocked_LC_updated,2021.2.3,233.18774648186778,
,,,X,1,,,,,,,,,,,,,,,,,,,,,,,19,0,38,0,,,,,,,,,,,,,,,,,,,,,,,,,,,,,,,,,,,,,,,,,,,,,,,,,,,,,,,,,,,,,,,,,,,,,,,,,,,,,,,,,,,,,,,,,,,,,,,768.9090221999795,769.8589250000077,1,1,768.9090221999795,769.8589250000077,769.8501428999589,None,0.416876399947796,,,,,,,,,,,,,,,,,,,,,,,,,,,,,,,1103-t2,001,3,1,2022_Mar_22_1523,task_complete_blocked_LC_updated,2021.2.3,233.18774648186778,
,,,O,2,,,,,,,,,,,,,,,,,,,,,,,19,1,39,1,,,,,,,,,,,,,,,,,,,,,,,,,,,,,,,,,,,,,,,,,,,,,,,,,,,,,,,,,,,,,,,,,,,,,,,,,,,,,,,,,,,,,,,,,,,,,,,769.9045997000067,770.859444200003,2,1,769.9045997000067,770.859444200003,770.853169799957,769.9045997000067,0.3751541000092402,,,,,,,,,,,,,,,,,,,,,,,,,,,,,,,1103-t2,001,3,1,2022_Mar_22_1523,task_complete_blocked_LC_updated,2021.2.3,233.18774648186778,
,,,X,1,,,,,,,,,,,,,,,,,,,,,,,20,0,40,0,,,,,,,,,,,,,,,,,,,,,,,,,,,,,,,,,,,,,,,,,,,,,,,,,,,,,,,,,,,,,,,,,,,,,,,,,,,,,,,,,,,,,,,,,,,,,,,770.9053535999847,771.8534564999864,1,1,770.9053535999847,771.8534564999864,771.8534564999864,770.9053535999847,0.5060529999900609,,,,,,,,,,,,,,,,,,,,,,,,,,,,,,,1103-t2,001,3,1,2022_Mar_22_1523,task_complete_blocked_LC_updated,2021.2.3,233.18774648186778,
,,,O,2,,,,,,,,,,,,,,,,,,,,,,,20,1,41,1,,,,,,,,,,,,,,,,,,,,,,,,,,,,,,,,,,,,,,,,,,,,,,,,,,,,,,,,,,,,,,,,,,,,,,,,,,,,,,,,,,,,,,,,,,,,,,,771.9069565999671,772.8576754999813,2,1,771.9069565999671,772.8576754999813,772.8552414999576,None,0.5482692000223324,,,,,,,,,,,,,,,,,,,,,,,,,,,,,,,1103-t2,001,3,1,2022_Mar_22_1523,task_complete_blocked_LC_updated,2021.2.3,233.18774648186778,
,,,O,2,,,,,,,,,,,,,,,,,,,,,,,21,0,42,1,,,,,,,,,,,,,,,,,,,,,,,,,,,,,,,,,,,,,,,,,,,,,,,,,,,,,,,,,,,,,,,,,,,,,,,,,,,,,,,,,,,,,,,,,,,,,,,772.9064021999948,773.8550537999836,2,1,772.9064021999948,773.8550537999836,773.8515236999956,None,0.5102998999645934,,,,,,,,,,,,,,,,,,,,,,,,,,,,,,,1103-t2,001,3,1,2022_Mar_22_1523,task_complete_blocked_LC_updated,2021.2.3,233.18774648186778,
,,,X,1,,,,,,,,,,,,,,,,,,,,,,,21,1,43,0,,,,,,,,,,,,,,,,,,,,,,,,,,,,,,,,,,,,,,,,,,,,,,,,,,,,,,,,,,,,,,,,,,,,,,,,,,,,,,,,,,,,,,,,,,,,,,,773.9051177999936,774.856406899984,1,1,773.9051177999936,774.856406899984,774.8522648999933,773.9051177999936,0.46557919995393604,,,,,,,,,,,,,,,,,,,,,,,,,,,,,,,1103-t2,001,3,1,2022_Mar_22_1523,task_complete_blocked_LC_updated,2021.2.3,233.18774648186778,
,,,O,2,,,,,,,,,,,,,,,,,,,,,,,22,0,44,1,,,,,,,,,,,,,,,,,,,,,,,,,,,,,,,,,,,,,,,,,,,,,,,,,,,,,,,,,,,,,,,,,,,,,,,,,,,,,,,,,,,,,,,,,,,,,,,774.9134178999811,775.8643483999767,2,1,774.9134178999811,775.8643483999767,775.8603351999773,None,0.9285034000058658,,,,,,,,,,,,,,,,,,,,,,,,,,,,,,,1103-t2,001,3,1,2022_Mar_22_1523,task_complete_blocked_LC_updated,2021.2.3,233.18774648186778,
,,,X,1,,,,,,,,,,,,,,,,,,,,,,,22,1,45,0,,,,,,,,,,,,,,,,,,,,,,,,,,,,,,,,,,,,,,,,,,,,,,,,,,,,,,,,,,,,,,,,,,,,,,,,,,,,,,,,,,,,,,,,,,,,,,,775.9066779999994,776.8562832999742,2,0,775.9066779999994,776.8562832999742,776.8531223000027,None,0.6814176000189036,,,,,,,,,,,,,,,,,,,,,,,,,,,,,,,1103-t2,001,3,1,2022_Mar_22_1523,task_complete_blocked_LC_updated,2021.2.3,233.18774648186778,
,,,O,2,,,,,,,,,,,,,,,,,,,,,,,23,0,46,1,,,,,,,,,,,,,,,,,,,,,,,,,,,,,,,,,,,,,,,,,,,,,,,,,,,,,,,,,,,,,,,,,,,,,,,,,,,,,,,,,,,,,,,,,,,,,,,776.9069908999954,777.8571135000093,1,0,776.9069908999954,777.8571135000093,777.8538658999605,None,0.7436860000016168,,,,,,,,,,,,,,,,,,,,,,,,,,,,,,,1103-t2,001,3,1,2022_Mar_22_1523,task_complete_blocked_LC_updated,2021.2.3,233.18774648186778,
,,,X,1,,,,,,,,,,,,,,,,,,,,,,,23,1,47,0,,,,,,,,,,,,,,,,,,,,,,,,,,,,,,,,,,,,,,,,,,,,,,,,,,,,,,,,,,,,,,,,,,,,,,,,,,,,,,,,,,,,,,,,,,,,,,,777.9068542000023,778.8603561999626,2,0,777.9068542000023,778.8603561999626,778.8566142999916,None,0.549716499983333,,,,,,,,,,,,,,,,,,,,,,,,,,,,,,,1103-t2,001,3,1,2022_Mar_22_1523,task_complete_blocked_LC_updated,2021.2.3,233.18774648186778,
,,,X,1,,,,,,,,,,,,,,,,,,,,,,,24,0,48,0,,,,,,,,,,,,,,,,,,,,,,,,,,,,,,,,,,,,,,,,,,,,,,,,,,,,,,,,,,,,,,,,,,,,,,,,,,,,,,,,,,,,,,,,,,,,,,,778.9061801999924,779.8553908999893,None,0,778.9061801999924,779.8553908999893,779.8527337000123,None,,,,,,,,,,,,,,,,,,,,,,,,,,,,,,,,1103-t2,001,3,1,2022_Mar_22_1523,task_complete_blocked_LC_updated,2021.2.3,233.18774648186778,
,,,O,2,,,,,,,,,,,,,,,,,,,,,,,24,1,49,1,,,,,,,,,,,,,,,,,,,,,,,,,,,,,,,,,,,,,,,,,,,,,,,,,,,,,,,,,,,,,,,,,,,,,,,,,,,,,,,,,,,,,,,,,,,,,,,779.9036853999714,780.8559021999827,1,0,779.9036853999714,780.8559021999827,780.8530535000027,779.9036853999714,0.15583510004216805,,,,,,,,,,,,,,,,,,,,,,,,,,,,,,,1103-t2,001,3,1,2022_Mar_22_1523,task_complete_blocked_LC_updated,2021.2.3,233.18774648186778,
,,,O,2,,,,,,,,,,,,,,,,,,,,,,,25,0,50,1,,,,,,,,,,,,,,,,,,,,,,,,,,,,,,,,,,,,,,,,,,,,,,,,,,,,,,,,,,,,,,,,,,,,,,,,,,,,,,,,,,,,,,,,,,,,,,,780.9042675999808,781.8579309000052,2,1,780.9042675999808,781.8579309000052,781.8540253000101,780.9042675999808,0.346952699997928,,,,,,,,,,,,,,,,,,,,,,,,,,,,,,,1103-t2,001,3,1,2022_Mar_22_1523,task_complete_blocked_LC_updated,2021.2.3,233.18774648186778,
,,,X,1,,,,,,,,,,,,,,,,,,,,,,,25,1,51,0,,,,,,,,,,,,,,,,,,,,,,,,,,,,,,,,,,,,,,,,,,,,,,,,,,,,,,,,,,,,,,,,,,,,,,,,,,,,,,,,,,,,,,,,,,,,,,,781.9067923999974,782.8584053000086,1,1,781.9067923999974,782.8584053000086,782.8552207999746,None,0.5056041999487206,,,,,,,,,,,,,,,,,,,,,,,,,,,,,,,1103-t2,001,3,1,2022_Mar_22_1523,task_complete_blocked_LC_updated,2021.2.3,233.18774648186778,
,,,O,2,,,,,,,,,,,,,,,,,,,,,,,26,0,52,1,,,,,,,,,,,,,,,,,,,,,,,,,,,,,,,,,,,,,,,,,,,,,,,,,,,,,,,,,,,,,,,,,,,,,,,,,,,,,,,,,,,,,,,,,,,,,,,782.9082010000129,783.8613137999782,2,1,782.9082010000129,783.8613137999782,783.858283300011,None,0.37083990004612133,,,,,,,,,,,,,,,,,,,,,,,,,,,,,,,1103-t2,001,3,1,2022_Mar_22_1523,task_complete_blocked_LC_updated,2021.2.3,233.18774648186778,
,,,X,1,,,,,,,,,,,,,,,,,,,,,,,26,1,53,0,,,,,,,,,,,,,,,,,,,,,,,,,,,,,,,,,,,,,,,,,,,,,,,,,,,,,,,,,,,,,,,,,,,,,,,,,,,,,,,,,,,,,,,,,,,,,,,783.907427099999,784.8574043000117,1,1,783.907427099999,784.8574043000117,784.8542400999577,None,0.4781068000011146,,,,,,,,,,,,,,,,,,,,,,,,,,,,,,,1103-t2,001,3,1,2022_Mar_22_1523,task_complete_blocked_LC_updated,2021.2.3,233.18774648186778,
,,,X,1,,,,,,,,,,,,,,,,,,,,,,,27,0,54,0,,,,,,,,,,,,,,,,,,,,,,,,,,,,,,,,,,,,,,,,,,,,,,,,,,,,,,,,,,,,,,,,,,,,,,,,,,,,,,,,,,,,,,,,,,,,,,,784.9078358999686,785.8561728000059,1,1,784.9078358999686,785.8561728000059,785.8533217000077,None,0.5720782999997027,,,,,,,,,,,,,,,,,,,,,,,,,,,,,,,1103-t2,001,3,1,2022_Mar_22_1523,task_complete_blocked_LC_updated,2021.2.3,233.18774648186778,
,,,O,2,,,,,,,,,,,,,,,,,,,,,,,27,1,55,1,,,,,,,,,,,,,,,,,,,,,,,,,,,,,,,,,,,,,,,,,,,,,,,,,,,,,,,,,,,,,,,,,,,,,,,,,,,,,,,,,,,,,,,,,,,,,,,785.9046988000046,786.85754669999,2,1,785.9046988000046,786.85754669999,786.8539678999805,785.9046988000046,0.394149900006596,,,,,,,,,,,,,,,,,,,,,,,,,,,,,,,1103-t2,001,3,1,2022_Mar_22_1523,task_complete_blocked_LC_updated,2021.2.3,233.18774648186778,
,,,O,2,,,,,,,,,,,,,,,,,,,,,,,28,0,56,1,,,,,,,,,,,,,,,,,,,,,,,,,,,,,,,,,,,,,,,,,,,,,,,,,,,,,,,,,,,,,,,,,,,,,,,,,,,,,,,,,,,,,,,,,,,,,,,786.9060108999838,787.8578032999649,2,1,786.9060108999838,787.8578032999649,787.8535876999958,None,0.44601220003096387,,,,,,,,,,,,,,,,,,,,,,,,,,,,,,,1103-t2,001,3,1,2022_Mar_22_1523,task_complete_blocked_LC_updated,2021.2.3,233.18774648186778,
,,,X,1,,,,,,,,,,,,,,,,,,,,,,,28,1,57,0,,,,,,,,,,,,,,,,,,,,,,,,,,,,,,,,,,,,,,,,,,,,,,,,,,,,,,,,,,,,,,,,,,,,,,,,,,,,,,,,,,,,,,,,,,,,,,,787.9071892999928,788.8575102000032,1,1,787.9071892999928,788.8575102000032,788.8530342999729,None,0.523710299981758,,,,,,,,,,,,,,,,,,,,,,,,,,,,,,,1103-t2,001,3,1,2022_Mar_22_1523,task_complete_blocked_LC_updated,2021.2.3,233.18774648186778,
,,,X,1,,,,,,,,,,,,,,,,,,,,,,,29,0,58,0,,,,,,,,,,,,,,,,,,,,,,,,,,,,,,,,,,,,,,,,,,,,,,,,,,,,,,,,,,,,,,,,,,,,,,,,,,,,,,,,,,,,,,,,,,,,,,,788.9045688000042,789.8535371999606,None,0,788.9045688000042,789.8535371999606,789.8535371999606,788.9045688000042,,,,,,,,,,,,,,,,,,,,,,,,,,,,,,,,1103-t2,001,3,1,2022_Mar_22_1523,task_complete_blocked_LC_updated,2021.2.3,233.18774648186778,
,,,O,2,,,,,,,,,,,,,,,,,,,,,,,29,1,59,1,,,,,,,,,,,,,,,,,,,,,,,,,,,,,,,,,,,,,,,,,,,,,,,,,,,,,,,,,,,,,,,,,,,,,,,,,,,,,,,,,,,,,,,,,,,,,,,789.9077906999737,790.8588376999833,2,1,789.9077906999737,790.8588376999833,790.855365299969,None,0.6050629999954253,,,,,,,,,,,,,,,,,,,,,,,,,,,,,,,1103-t2,001,3,1,2022_Mar_22_1523,task_complete_blocked_LC_updated,2021.2.3,233.18774648186778,
,,,,,,,,,,,,,,,,,,,,,,,,,,,,,,,,,,,,,,,,,,,,,,,,,,,,,,,,,,,,,,,,,,,,,,,,,,,,,,,,,,,,,,,,,,,,,,,,,,,,,,,,,,,,,,,,,,,,,,,,,,,,,,,,,,,,,,790.9060426999931,None,space,39.05637809995096,795.9061151999631,None,,,,,,,,,,,,,,,,,,,,,,,,,1103-t2,001,3,1,2022_Mar_22_1523,task_complete_blocked_LC_updated,2021.2.3,233.18774648186778,
,,,,,,,,,,,,,,,,,,,,,,,,,,,,,,,,,,,,,,,,,,,,,,,,,,,,,,,,,,,,,,,,,,,,,,,,,,,,,,,,,,,,,,,,,,,,,,,834.968972600007,None,5,13.569943299982697,834.968972600007,None,,,,,,,,,,,,,,,,,,,,,,,,,,,,,,,,,,,,,,,,795.9061151999631,None,,,,,,,,,,,,,,,,,,,,,,,1103-t2,001,3,1,2022_Mar_22_1523,task_complete_blocked_LC_updated,2021.2.3,233.18774648186778,
stimulus_images/Aboardgame6.jpg,TIME,0,,,,,,,,,,,,,,,,,,,,,,,,,,,,,0,0,0,2,,,,,,,,,,,,,,,,,,,,,,,,,,,,,,,,,,,,,,,,,,,,,,,,,,,,,,,,,,,,,,,,,,,2.4999608285725117e-06,848.563464100007,850.5653920999612,848.563464100007,850.5653920999612,849.5576527999947,850.5608718000003,849.5576527999947,850.5608718000003,850.5608718000003,None,5.99026779999258,854.549114399997,None,854.549114399997,None,3,0.7355246000224724,854.549114399997,None,860.5506091999705,None,,,,,,,,,,,,,,,,,,,,,,,,,,,,,,,,,,,,,,,,,,1103-t2,001,3,1,2022_Mar_22_1523,task_complete_blocked_LC_updated,2021.2.3,233.18774648186778,
stimulus_images/Acactusplant.jpg,TIME,1,,,,,,,,,,,,,,,,,,,,,,,,,,,,,0,1,1,3,,,,,,,,,,,,,,,,,,,,,,,,,,,,,,,,,,,,,,,,,,,,,,,,,,,,,,,,,,,,,,,,,,,12.995281799987424,861.5650339999702,863.5692472999799,861.5650339999702,863.5692472999799,862.5683068999788,863.5692472999799,862.5683068999788,863.5692472999799,863.5649595999857,None,18.99747059994843,867.556330499996,None,867.556330499996,None,3,0.738368799968157,867.556330499996,None,873.5589037999744,None,,,,,,,,,,,,,,,,,,,,,,,,,,,,,,,,,,,,,,,,,,1103-t2,001,3,1,2022_Mar_22_1523,task_complete_blocked_LC_updated,2021.2.3,233.18774648186778,
stimulus_images/ACUTBOAR2.jpg,TIME,0,,,,,,,,,,,,,,,,,,,,,,,,,,,,,0,2,2,5,,,,,,,,,,,,,,,,,,,,,,,,,,,,,,,,,,,,,,,,,,,,,,,,,,,,,,,,,,,,,,,,,,,28.003509699949063,876.5719760999782,878.5731326999958,876.5719760999782,878.5731326999958,877.5707859999966,878.5731326999958,877.5707859999966,878.5731326999958,878.5701032999787,None,34.005865299957804,882.5646770999883,None,882.5646770999883,None,3,1.2226122000138275,882.5646770999883,None,888.5661727999686,None,,,,,,,,,,,,,,,,,,,,,,,,,,,,,,,,,,,,,,,,,,1103-t2,001,3,1,2022_Mar_22_1523,task_complete_blocked_LC_updated,2021.2.3,233.18774648186778,
stimulus_images/Aflower102.jpg,TIME,0,,,,,,,,,,,,,,,,,,,,,,,,,,,,,0,3,3,6,,,,,,,,,,,,,,,,,,,,,,,,,,,,,,,,,,,,,,,,,,,,,,,,,,,,,,,,,,,,,,,,,,,43.01170809997711,891.5734514999785,893.574131899979,891.5734514999785,893.574131899979,892.5689639999764,893.570962400001,892.5689639999764,893.570962400001,893.56771079998,None,49.01172899996163,897.5704715999891,None,897.5704715999891,None,2,2.1012092999881133,897.5704715999891,None,903.5721177000087,None,,,,,,,,,,,,,,,,,,,,,,,,,,,,,,,,,,,,,,,,,,1103-t2,001,3,1,2022_Mar_22_1523,task_complete_blocked_LC_updated,2021.2.3,233.18774648186778,
stimulus_images/Aplantinpot2.jpg,TIME,0,,,,,,,,,,,,,,,,,,,,,,,,,,,,,0,4,4,9,,,,,,,,,,,,,,,,,,,,,,,,,,,,,,,,,,,,,,,,,,,,,,,,,,,,,,,,,,,,,,,,,,,57.01617679995252,905.5843114999589,907.5918983999873,905.5843114999589,907.5918983999873,906.5817613999825,907.5861161999637,906.5817613999825,907.5861161999637,907.5861161999637,None,63.018468099995516,911.577461000008,None,911.577461000008,None,3,0.8342246999964118,911.577461000008,None,917.5786501999828,None,,,,,,,,,,,,,,,,,,,,,,,,,,,,,,,,,,,,,,,,,,1103-t2,001,3,1,2022_Mar_22_1523,task_complete_blocked_LC_updated,2021.2.3,233.18774648186778,
stimulus_images/Achampagnebo2.jpg,TIME,0,,,,,,,,,,,,,,,,,,,,,,,,,,,,,0,5,5,4,,,,,,,,,,,,,,,,,,,,,,,,,,,,,,,,,,,,,,,,,,,,,,,,,,,,,,,,,,,,,,,,,,,70.02373039996019,918.5932119999779,920.5931198999751,918.5932119999779,920.5931198999751,919.5926867999951,920.5931198999751,919.5926867999951,920.5931198999751,920.5899558999809,None,76.02696879999712,924.5905322000035,None,924.5905322000035,None,3,1.3917989999754354,924.5905322000035,None,930.5830511999666,None,,,,,,,,,,,,,,,,,,,,,,,,,,,,,,,,,,,,,,,,,,1103-t2,001,3,1,2022_Mar_22_1523,task_complete_blocked_LC_updated,2021.2.3,233.18774648186778,
stimulus_images/Ahandbag50.jpg,TIME,1,,,,,,,,,,,,,,,,,,,,,,,,,,,,,0,6,6,7,,,,,,,,,,,,,,,,,,,,,,,,,,,,,,,,,,,,,,,,,,,,,,,,,,,,,,,,,,,,,,,,,,,84.02855469996575,932.5985206000041,934.5984425999923,932.5985206000041,934.5984425999923,933.5999891000101,934.5984425999923,933.5999891000101,934.5984425999923,934.5954528999864,None,90.03128060000017,938.5905370999826,None,938.5905370999826,None,4,0.8877110999892466,938.5905370999826,None,944.588021899981,None,,,,,,,,,,,,,,,,,,,,,,,,,,,,,,,,,,,,,,,,,,1103-t2,001,3,1,2022_Mar_22_1523,task_complete_blocked_LC_updated,2021.2.3,233.18774648186778,
stimulus_images/Ababybottle15.jpg,TIME,0,,,,,,,,,,,,,,,,,,,,,,,,,,,,,0,7,7,0,,,,,,,,,,,,,,,,,,,,,,,,,,,,,,,,,,,,,,,,,,,,,,,,,,,,,,,,,,,,,,,,,,,97.03304409998236,945.6011037999997,947.5993597999914,945.6011037999997,947.5993597999914,946.5986164999777,947.5969619000098,946.5986164999777,947.5969619000098,947.5969619000098,None,103.03529969998635,951.594171100005,None,951.594171100005,None,3,1.1212655999697745,951.594171100005,None,957.5950605999678,None,,,,,,,,,,,,,,,,,,,,,,,,,,,,,,,,,,,,,,,,,,1103-t2,001,3,1,2022_Mar_22_1523,task_complete_blocked_LC_updated,2021.2.3,233.18774648186778,
stimulus_images/Abasket108.jpg,TIME,0,,,,,,,,,,,,,,,,,,,,,,,,,,,,,0,8,8,1,,,,,,,,,,,,,,,,,,,,,,,,,,,,,,,,,,,,,,,,,,,,,,,,,,,,,,,,,,,,,,,,,,,112.03699539997615,960.6056617999566,962.6050085999887,960.6056617999566,962.6050085999887,961.6033257999807,962.6050085999887,961.6033257999807,962.6050085999887,962.6021388999652,None,118.03959139995277,966.5989495000103,None,966.5989495000103,None,3,0.7952874999609776,966.5989495000103,None,972.59823589999,None,,,,,,,,,,,,,,,,,,,,,,,,,,,,,,,,,,,,,,,,,,1103-t2,001,3,1,2022_Mar_22_1523,task_complete_blocked_LC_updated,2021.2.3,233.18774648186778,
stimulus_images/ALOAFBR4.jpg,TIME,0,,,,,,,,,,,,,,,,,,,,,,,,,,,,,0,9,9,8,,,,,,,,,,,,,,,,,,,,,,,,,,,,,,,,,,,,,,,,,,,,,,,,,,,,,,,,,,,,,,,,,,,126.04162559995893,974.6037999999826,976.604671899986,974.6037999999826,976.604671899986,975.5996067000087,976.604671899986,975.5996067000087,976.604671899986,976.604671899986,None,132.0437839999795,980.6026111000101,None,980.6026111000101,None,2,0.9749364999588579,980.6026111000101,None,986.6005891999812,None,,,,,,,,,,,,,,,,,,,,,,,,,,,,,,,,,,,,,,,,,,1103-t2,001,3,1,2022_Mar_22_1523,task_complete_blocked_LC_updated,2021.2.3,233.18774648186778,
stimulus_images/ASEWINGT4.jpg,TIME,0,,,,,,,,,,,,,,,,,,,,,,,,,,,,,,,,,0,0,0,0,,,,,,,,,,,,,,,,,,,,,,,,,,,,,,,,,,,,,,,,,,,,,,,,,,,,,,,,,,,,,,,140.0518049999955,988.6143419999862,990.6122881000047,988.6143419999862,990.6122881000047,989.6107616999652,990.6122881000047,989.6107616999652,990.6122881000047,990.6092385000084,None,146.04830849997234,994.6073212999618,None,994.6073212999618,None,3,0.7370797000476159,994.6073212999618,None,1000.6056752000004,None,,,,,,,,,,,,,,,,,,,,,,,,,,,,,,,,,,,,,,,,,,1103-t2,001,3,1,2022_Mar_22_1523,task_complete_blocked_LC_updated,2021.2.3,233.18774648186778,
stimulus_images/AANTFRYI2.jpg,TIME,0,,,,,,,,,,,,,,,,,,,,,,,,,,,,,,,,,0,1,1,5,,,,,,,,,,,,,,,,,,,,,,,,,,,,,,,,,,,,,,,,,,,,,,,,,,,,,,,,,,,,,,,154.049351499998,1002.6276222000015,1004.6257420000038,1002.6276222000015,1004.6257420000038,1003.6206518000108,1004.6231296999613,1003.6206518000108,1004.6231296999613,1004.6188281999785,None,160.05215369997313,1008.6110884000082,None,1008.6110884000082,None,3,1.2593122000107542,1008.6110884000082,None,1014.6131221000105,None,,,,,,,,,,,,,,,,,,,,,,,,,,,,,,,,,,,,,,,,,,1103-t2,001,3,1,2022_Mar_22_1523,task_complete_blocked_LC_updated,2021.2.3,233.18774648186778,
stimulus_images/Awatch28.jpg,TIME,1,,,,,,,,,,,,,,,,,,,,,,,,,,,,,,,,,0,2,2,1,,,,,,,,,,,,,,,,,,,,,,,,,,,,,,,,,,,,,,,,,,,,,,,,,,,,,,,,,,,,,,,167.0581132999505,1015.6258932999917,1017.6321359999711,1015.6258932999917,1017.6321359999711,1016.6237945999601,1017.6282576000085,1016.6237945999601,1017.6282576000085,1017.6282576000085,None,173.06058449996635,1021.6194986999617,None,1021.6194986999617,None,3,0.7460195999592543,1021.6194986999617,None,1027.624233199982,None,,,,,,,,,,,,,,,,,,,,,,,,,,,,,,,,,,,,,,,,,,1103-t2,001,3,1,2022_Mar_22_1523,task_complete_blocked_LC_updated,2021.2.3,233.18774648186778,
stimulus_images/AAEROBENC.jpg,TIME,0,,,,,,,,,,,,,,,,,,,,,,,,,,,,,,,,,0,3,3,4,,,,,,,,,,,,,,,,,,,,,,,,,,,,,,,,,,,,,,,,,,,,,,,,,,,,,,,,,,,,,,,180.06646979996003,1028.635409199982,1030.6349191999761,1028.635409199982,1030.6349191999761,1029.6326892999932,1030.6349191999761,1029.6326892999932,1030.6349191999761,1030.6319207999622,None,186.0708896999713,1034.6299609999987,None,1034.6299609999987,None,2,1.2896383999614045,1034.6299609999987,None,1040.6252049999894,None,,,,,,,,,,,,,,,,,,,,,,,,,,,,,,,,,,,,,,,,,,1103-t2,001,3,1,2022_Mar_22_1523,task_complete_blocked_LC_updated,2021.2.3,233.18774648186778,
stimulus_images/pencil-a.jpg,TIME,0,,,,,,,,,,,,,,,,,,,,,,,,,,,,,,,,,0,4,4,2,,,,,,,,,,,,,,,,,,,,,,,,,,,,,,,,,,,,,,,,,,,,,,,,,,,,,,,,,,,,,,,193.07065359997796,1041.6396317000035,1043.6406757999794,1041.6396317000035,1043.6406757999794,1042.637579799979,1043.6376444000052,1042.637579799979,1043.6376444000052,1043.6337479999638,None,199.07329269999173,1047.6320934999967,None,1047.6320934999967,None,3,1.0578860999667086,1047.6320934999967,None,1053.6291854999727,None,,,,,,,,,,,,,,,,,,,,,,,,,,,,,,,,,,,,,,,,,,1103-t2,001,3,1,2022_Mar_22_1523,task_complete_blocked_LC_updated,2021.2.3,233.18774648186778,
stimulus_images/AARTPLANT.jpg,TIME,0,,,,,,,,,,,,,,,,,,,,,,,,,,,,,,,,,0,5,5,6,,,,,,,,,,,,,,,,,,,,,,,,,,,,,,,,,,,,,,,,,,,,,,,,,,,,,,,,,,,,,,,207.07103969994932,1055.6396629000083,1057.640399899974,1055.6396629000083,1057.640399899974,1056.636697799957,1057.6368661999586,1056.636697799957,1057.6368661999586,1057.6368661999586,None,213.0743928999873,1061.6328279000008,None,1061.6328279000008,None,3,1.3637625999981537,1061.6328279000008,None,1067.6340113999904,None,,,,,,,,,,,,,,,,,,,,,,,,,,,,,,,,,,,,,,,,,,1103-t2,001,3,1,2022_Mar_22_1523,task_complete_blocked_LC_updated,2021.2.3,233.18774648186778,
stimulus_images/Abananasundae.jpg,TIME,1,,,,,,,,,,,,,,,,,,,,,,,,,,,,,,,,,0,6,6,7,,,,,,,,,,,,,,,,,,,,,,,,,,,,,,,,,,,,,,,,,,,,,,,,,,,,,,,,,,,,,,,222.07955089997267,1070.6490777999861,1072.6527950000018,1070.6490777999861,1072.6527950000018,1071.6476350000012,1072.6471590999863,1071.6476350000012,1072.6471590999863,1072.6471590999863,None,228.08190969994757,1076.6408631000086,None,1076.6408631000086,None,1,1.9175601999741048,1076.6408631000086,None,1082.6419719000114,None,,,,,,,,,,,,,,,,,,,,,,,,,,,,,,,,,,,,,,,,,,1103-t2,001,3,1,2022_Mar_22_1523,task_complete_blocked_LC_updated,2021.2.3,233.18774648186778,
stimulus_images/Abrooch100.jpg,TIME,0,,,,,,,,,,,,,,,,,,,,,,,,,,,,,,,,,0,7,7,9,,,,,,,,,,,,,,,,,,,,,,,,,,,,,,,,,,,,,,,,,,,,,,,,,,,,,,,,,,,,,,,236.08339459996205,1084.6523627999704,1086.6495712999604,1084.6523627999704,1086.6495712999604,1085.647290599998,1086.647284900013,1085.647290599998,1086.647284900013,1086.647284900013,None,242.08739189995686,1090.6504627999966,None,1090.6504627999966,None,3,1.323443999979645,1090.6504627999966,None,1096.642508799967,None,,,,,,,,,,,,,,,,,,,,,,,,,,,,,,,,,,,,,,,,,,1103-t2,001,3,1,2022_Mar_22_1523,task_complete_blocked_LC_updated,2021.2.3,233.18774648186778,
stimulus_images/ABISHOP2.jpg,TIME,0,,,,,,,,,,,,,,,,,,,,,,,,,,,,,,,,,0,8,8,8,,,,,,,,,,,,,,,,,,,,,,,,,,,,,,,,,,,,,,,,,,,,,,,,,,,,,,,,,,,,,,,251.08949839998968,1099.650987299974,1101.6498502999893,1099.650987299974,1101.6498502999893,1100.6436955999816,1101.6431255000061,1100.6436955999816,1101.6431255000061,1101.6431255000061,None,257.08776419999776,1105.6464385999716,None,1105.6464385999716,None,3,1.0094159000436775,1105.6464385999716,None,1111.6495298999944,None,,,,,,,,,,,,,,,,,,,,,,,,,,,,,,,,,,,,,,,,,,1103-t2,001,3,1,2022_Mar_22_1523,task_complete_blocked_LC_updated,2021.2.3,233.18774648186778,
stimulus_images/A_teabag.jpg,TIME,1,,,,,,,,,,,,,,,,,,,,,,,,,,,,,,,,,0,9,9,3,,,,,,,,,,,,,,,,,,,,,,,,,,,,,,,,,,,,,,,,,,,,,,,,,,,,,,,,,,,,,,,266.09187019994715,1114.6611121000024,1116.6608877999824,1114.6611121000024,1116.6608877999824,1115.6548403999768,1116.6571716999752,1115.6548403999768,1116.6571716999752,1116.6571716999752,None,272.0943714999594,1120.6532166000106,None,1120.6532166000106,None,3,0.8237657999852672,1120.6532166000106,None,1126.6518546000007,None,,,,,,,,,,,,,,,,,,,,,,,,,,,,,,,,,,,,,,,,,,1103-t2,001,3,1,2022_Mar_22_1523,task_complete_blocked_LC_updated,2021.2.3,233.18774648186778,
,,,X,1,,,,,,,,,,,,,,,,,,,,,,,,,,,,,,,,,,,0,0,0,0,,,,,,,,,,,,,,,,,,,,,,,,,,,,,,,,,,,,,,,,,,,,,,,,,,,,,,,,,,,,,,,,,,,,,,,,,,,,,,,,,1128.6591528999852,None,1131.6669802999822,1132.6190867999685,1,1,1131.6669802999822,1132.6190867999685,1132.6143807999906,None,0.5923719000420533,,,,,,,,,,,,,,,,,,,,,,,,,,,,,,,1103-t2,001,3,1,2022_Mar_22_1523,task_complete_blocked_LC_updated,2021.2.3,233.18774648186778,
,,,O,2,,,,,,,,,,,,,,,,,,,,,,,,,,,,,,,,,,,0,1,1,1,,,,,,,,,,,,,,,,,,,,,,,,,,,,,,,,,,,,,,,,,,,,,,,,,,,,,,,,,,,,,,,,,,,,,,,,,,,,,,,,,,,1132.6718571999809,1133.620529000007,2,1,1132.6718571999809,1133.620529000007,1133.6170721999952,None,0.34825460001593456,,,,,,,,,,,,,,,,,,,,,,,,,,,,,,,1103-t2,001,3,1,2022_Mar_22_1523,task_complete_blocked_LC_updated,2021.2.3,233.18774648186778,
,,,X,1,,,,,,,,,,,,,,,,,,,,,,,,,,,,,,,,,,,1,0,2,0,,,,,,,,,,,,,,,,,,,,,,,,,,,,,,,,,,,,,,,,,,,,,,,,,,,,,,,,,,,,,,,,,,,,,,,,,,,,,,,,,,,1133.6629533999949,1134.620420799998,1,1,1133.6629533999949,1134.620420799998,1134.6124842999852,None,0.38840860000345856,,,,,,,,,,,,,,,,,,,,,,,,,,,,,,,1103-t2,001,3,1,2022_Mar_22_1523,task_complete_blocked_LC_updated,2021.2.3,233.18774648186778,
,,,O,2,,,,,,,,,,,,,,,,,,,,,,,,,,,,,,,,,,,1,1,3,1,,,,,,,,,,,,,,,,,,,,,,,,,,,,,,,,,,,,,,,,,,,,,,,,,,,,,,,,,,,,,,,,,,,,,,,,,,,,,,,,,,,1134.662454299978,1135.620686099981,2,1,1134.662454299978,1135.620686099981,1135.6070916999597,None,0.2569262000033632,,,,,,,,,,,,,,,,,,,,,,,,,,,,,,,1103-t2,001,3,1,2022_Mar_22_1523,task_complete_blocked_LC_updated,2021.2.3,233.18774648186778,
,,,X,1,,,,,,,,,,,,,,,,,,,,,,,,,,,,,,,,,,,2,0,4,0,,,,,,,,,,,,,,,,,,,,,,,,,,,,,,,,,,,,,,,,,,,,,,,,,,,,,,,,,,,,,,,,,,,,,,,,,,,,,,,,,,,1135.661018599989,1136.6139232999994,1,1,1135.661018599989,1136.6139232999994,1136.6107623999706,1135.661018599989,0.31979579996550456,,,,,,,,,,,,,,,,,,,,,,,,,,,,,,,1103-t2,001,3,1,2022_Mar_22_1523,task_complete_blocked_LC_updated,2021.2.3,233.18774648186778,
,,,O,2,,,,,,,,,,,,,,,,,,,,,,,,,,,,,,,,,,,2,1,5,1,,,,,,,,,,,,,,,,,,,,,,,,,,,,,,,,,,,,,,,,,,,,,,,,,,,,,,,,,,,,,,,,,,,,,,,,,,,,,,,,,,,1136.664177300001,1137.6124302999815,2,1,1136.664177300001,1137.6124302999815,1137.609495599987,None,0.2619305999833159,,,,,,,,,,,,,,,,,,,,,,,,,,,,,,,1103-t2,001,3,1,2022_Mar_22_1523,task_complete_blocked_LC_updated,2021.2.3,233.18774648186778,
,,,O,2,,,,,,,,,,,,,,,,,,,,,,,,,,,,,,,,,,,3,0,6,1,,,,,,,,,,,,,,,,,,,,,,,,,,,,,,,,,,,,,,,,,,,,,,,,,,,,,,,,,,,,,,,,,,,,,,,,,,,,,,,,,,,1137.6618629999575,1138.6161679999786,2,1,1137.6618629999575,1138.6161679999786,1138.6062488000025,None,0.6250111000263132,,,,,,,,,,,,,,,,,,,,,,,,,,,,,,,1103-t2,001,3,1,2022_Mar_22_1523,task_complete_blocked_LC_updated,2021.2.3,233.18774648186778,
,,,X,1,,,,,,,,,,,,,,,,,,,,,,,,,,,,,,,,,,,3,1,7,0,,,,,,,,,,,,,,,,,,,,,,,,,,,,,,,,,,,,,,,,,,,,,,,,,,,,,,,,,,,,,,,,,,,,,,,,,,,,,,,,,,,1138.66123540001,1139.6098441999638,1,1,1138.66123540001,1139.6098441999638,1139.6098441999638,1138.66123540001,0.4290614000055939,,,,,,,,,,,,,,,,,,,,,,,,,,,,,,,1103-t2,001,3,1,2022_Mar_22_1523,task_complete_blocked_LC_updated,2021.2.3,233.18774648186778,
,,,X,1,,,,,,,,,,,,,,,,,,,,,,,,,,,,,,,,,,,4,0,8,0,,,,,,,,,,,,,,,,,,,,,,,,,,,,,,,,,,,,,,,,,,,,,,,,,,,,,,,,,,,,,,,,,,,,,,,,,,,,,,,,,,,1139.665976899967,1140.6220698999823,1,1,1139.665976899967,1140.6220698999823,1140.6086320999893,None,0.48442310001701117,,,,,,,,,,,,,,,,,,,,,,,,,,,,,,,1103-t2,001,3,1,2022_Mar_22_1523,task_complete_blocked_LC_updated,2021.2.3,233.18774648186778,
,,,O,2,,,,,,,,,,,,,,,,,,,,,,,,,,,,,,,,,,,4,1,9,1,,,,,,,,,,,,,,,,,,,,,,,,,,,,,,,,,,,,,,,,,,,,,,,,,,,,,,,,,,,,,,,,,,,,,,,,,,,,,,,,,,,1140.6626139999717,1141.610898099956,2,1,1140.6626139999717,1141.610898099956,1141.6076474000001,None,0.31443960004253313,,,,,,,,,,,,,,,,,,,,,,,,,,,,,,,1103-t2,001,3,1,2022_Mar_22_1523,task_complete_blocked_LC_updated,2021.2.3,233.18774648186778,
,,,O,2,,,,,,,,,,,,,,,,,,,,,,,,,,,,,,,,,,,5,0,10,1,,,,,,,,,,,,,,,,,,,,,,,,,,,,,,,,,,,,,,,,,,,,,,,,,,,,,,,,,,,,,,,,,,,,,,,,,,,,,,,,,,,1141.6595469999593,1142.6119436000008,2,1,1141.6595469999593,1142.6119436000008,1142.607829799992,1141.6595469999593,0.5203618999803439,,,,,,,,,,,,,,,,,,,,,,,,,,,,,,,1103-t2,001,3,1,2022_Mar_22_1523,task_complete_blocked_LC_updated,2021.2.3,233.18774648186778,
,,,X,1,,,,,,,,,,,,,,,,,,,,,,,,,,,,,,,,,,,5,1,11,0,,,,,,,,,,,,,,,,,,,,,,,,,,,,,,,,,,,,,,,,,,,,,,,,,,,,,,,,,,,,,,,,,,,,,,,,,,,,,,,,,,,1142.6606174999615,1143.6117379000061,1,1,1142.6606174999615,1143.6117379000061,1143.6088848999934,1142.6606174999615,0.4581387999933213,,,,,,,,,,,,,,,,,,,,,,,,,,,,,,,1103-t2,001,3,1,2022_Mar_22_1523,task_complete_blocked_LC_updated,2021.2.3,233.18774648186778,
,,,O,2,,,,,,,,,,,,,,,,,,,,,,,,,,,,,,,,,,,6,0,12,1,,,,,,,,,,,,,,,,,,,,,,,,,,,,,,,,,,,,,,,,,,,,,,,,,,,,,,,,,,,,,,,,,,,,,,,,,,,,,,,,,,,1143.6624238999793,1144.6160743999644,2,1,1143.6624238999793,1144.6160743999644,1144.6127613999997,None,0.45086610002908856,,,,,,,,,,,,,,,,,,,,,,,,,,,,,,,1103-t2,001,3,1,2022_Mar_22_1523,task_complete_blocked_LC_updated,2021.2.3,233.18774648186778,
,,,X,1,,,,,,,,,,,,,,,,,,,,,,,,,,,,,,,,,,,6,1,13,0,,,,,,,,,,,,,,,,,,,,,,,,,,,,,,,,,,,,,,,,,,,,,,,,,,,,,,,,,,,,,,,,,,,,,,,,,,,,,,,,,,,1144.6644671999966,1145.6251359999878,1,1,1144.6644671999966,1145.6251359999878,1145.6186369999778,None,0.3658138999599032,,,,,,,,,,,,,,,,,,,,,,,,,,,,,,,1103-t2,001,3,1,2022_Mar_22_1523,task_complete_blocked_LC_updated,2021.2.3,233.18774648186778,
,,,O,2,,,,,,,,,,,,,,,,,,,,,,,,,,,,,,,,,,,7,0,14,1,,,,,,,,,,,,,,,,,,,,,,,,,,,,,,,,,,,,,,,,,,,,,,,,,,,,,,,,,,,,,,,,,,,,,,,,,,,,,,,,,,,1145.6630719999666,1146.6142148000072,2,1,1145.6630719999666,1146.6142148000072,1146.6110557999928,None,0.28515940002398565,,,,,,,,,,,,,,,,,,,,,,,,,,,,,,,1103-t2,001,3,1,2022_Mar_22_1523,task_complete_blocked_LC_updated,2021.2.3,233.18774648186778,
,,,X,1,,,,,,,,,,,,,,,,,,,,,,,,,,,,,,,,,,,7,1,15,0,,,,,,,,,,,,,,,,,,,,,,,,,,,,,,,,,,,,,,,,,,,,,,,,,,,,,,,,,,,,,,,,,,,,,,,,,,,,,,,,,,,1146.6634821000043,1147.6127053999808,1,1,1146.6634821000043,1147.6127053999808,1147.6094621999655,None,0.30353880004258826,,,,,,,,,,,,,,,,,,,,,,,,,,,,,,,1103-t2,001,3,1,2022_Mar_22_1523,task_complete_blocked_LC_updated,2021.2.3,233.18774648186778,
,,,O,2,,,,,,,,,,,,,,,,,,,,,,,,,,,,,,,,,,,8,0,16,1,,,,,,,,,,,,,,,,,,,,,,,,,,,,,,,,,,,,,,,,,,,,,,,,,,,,,,,,,,,,,,,,,,,,,,,,,,,,,,,,,,,1147.6632664999925,1148.6161718000076,2,1,1147.6632664999925,1148.6161718000076,1148.6129152000067,None,0.351108499977272,,,,,,,,,,,,,,,,,,,,,,,,,,,,,,,1103-t2,001,3,1,2022_Mar_22_1523,task_complete_blocked_LC_updated,2021.2.3,233.18774648186778,
,,,X,1,,,,,,,,,,,,,,,,,,,,,,,,,,,,,,,,,,,8,1,17,0,,,,,,,,,,,,,,,,,,,,,,,,,,,,,,,,,,,,,,,,,,,,,,,,,,,,,,,,,,,,,,,,,,,,,,,,,,,,,,,,,,,1148.6672684999648,1149.6184462999809,1,1,1148.6672684999648,1149.6184462999809,1149.6099344000104,None,0.35898980003548786,,,,,,,,,,,,,,,,,,,,,,,,,,,,,,,1103-t2,001,3,1,2022_Mar_22_1523,task_complete_blocked_LC_updated,2021.2.3,233.18774648186778,
,,,X,1,,,,,,,,,,,,,,,,,,,,,,,,,,,,,,,,,,,9,0,18,0,,,,,,,,,,,,,,,,,,,,,,,,,,,,,,,,,,,,,,,,,,,,,,,,,,,,,,,,,,,,,,,,,,,,,,,,,,,,,,,,,,,1149.661711499968,1150.6130636999733,1,1,1149.661711499968,1150.6130636999733,1150.6095073999604,None,0.4138451999751851,,,,,,,,,,,,,,,,,,,,,,,,,,,,,,,1103-t2,001,3,1,2022_Mar_22_1523,task_complete_blocked_LC_updated,2021.2.3,233.18774648186778,
,,,O,2,,,,,,,,,,,,,,,,,,,,,,,,,,,,,,,,,,,9,1,19,1,,,,,,,,,,,,,,,,,,,,,,,,,,,,,,,,,,,,,,,,,,,,,,,,,,,,,,,,,,,,,,,,,,,,,,,,,,,,,,,,,,,1150.6666791999596,1151.6249001999968,2,1,1150.6666791999596,1151.6249001999968,1151.6185826999717,None,0.3810578999691643,,,,,,,,,,,,,,,,,,,,,,,,,,,,,,,1103-t2,001,3,1,2022_Mar_22_1523,task_complete_blocked_LC_updated,2021.2.3,233.18774648186778,
,,,X,1,,,,,,,,,,,,,,,,,,,,,,,,,,,,,,,,,,,10,0,20,0,,,,,,,,,,,,,,,,,,,,,,,,,,,,,,,,,,,,,,,,,,,,,,,,,,,,,,,,,,,,,,,,,,,,,,,,,,,,,,,,,,,1151.663464799989,1152.6159562999965,1,1,1151.663464799989,1152.6159562999965,1152.607004999998,None,0.47426479996647686,,,,,,,,,,,,,,,,,,,,,,,,,,,,,,,1103-t2,001,3,1,2022_Mar_22_1523,task_complete_blocked_LC_updated,2021.2.3,233.18774648186778,
,,,O,2,,,,,,,,,,,,,,,,,,,,,,,,,,,,,,,,,,,10,1,21,1,,,,,,,,,,,,,,,,,,,,,,,,,,,,,,,,,,,,,,,,,,,,,,,,,,,,,,,,,,,,,,,,,,,,,,,,,,,,,,,,,,,1152.6605383999995,1153.6098281999584,2,1,1152.6605383999995,1153.6098281999584,1153.6098281999584,1152.6605383999995,0.37144500005524606,,,,,,,,,,,,,,,,,,,,,,,,,,,,,,,1103-t2,001,3,1,2022_Mar_22_1523,task_complete_blocked_LC_updated,2021.2.3,233.18774648186778,
,,,X,1,,,,,,,,,,,,,,,,,,,,,,,,,,,,,,,,,,,11,0,22,0,,,,,,,,,,,,,,,,,,,,,,,,,,,,,,,,,,,,,,,,,,,,,,,,,,,,,,,,,,,,,,,,,,,,,,,,,,,,,,,,,,,1153.663307300012,1154.61602029996,1,1,1153.663307300012,1154.61602029996,1154.612374099961,None,0.3255402999930084,,,,,,,,,,,,,,,,,,,,,,,,,,,,,,,1103-t2,001,3,1,2022_Mar_22_1523,task_complete_blocked_LC_updated,2021.2.3,233.18774648186778,
,,,O,2,,,,,,,,,,,,,,,,,,,,,,,,,,,,,,,,,,,11,1,23,1,,,,,,,,,,,,,,,,,,,,,,,,,,,,,,,,,,,,,,,,,,,,,,,,,,,,,,,,,,,,,,,,,,,,,,,,,,,,,,,,,,,1154.6626207999652,1155.6175330000115,2,1,1154.6626207999652,1155.6175330000115,1155.607359799964,None,0.470281999965664,,,,,,,,,,,,,,,,,,,,,,,,,,,,,,,1103-t2,001,3,1,2022_Mar_22_1523,task_complete_blocked_LC_updated,2021.2.3,233.18774648186778,
,,,O,2,,,,,,,,,,,,,,,,,,,,,,,,,,,,,,,,,,,12,0,24,1,,,,,,,,,,,,,,,,,,,,,,,,,,,,,,,,,,,,,,,,,,,,,,,,,,,,,,,,,,,,,,,,,,,,,,,,,,,,,,,,,,,1155.6598141999566,1156.6092366999947,2,1,1155.6598141999566,1156.6092366999947,1156.6058467999683,1155.6598141999566,0.4199635999975726,,,,,,,,,,,,,,,,,,,,,,,,,,,,,,,1103-t2,001,3,1,2022_Mar_22_1523,task_complete_blocked_LC_updated,2021.2.3,233.18774648186778,
,,,X,1,,,,,,,,,,,,,,,,,,,,,,,,,,,,,,,,,,,12,1,25,0,,,,,,,,,,,,,,,,,,,,,,,,,,,,,,,,,,,,,,,,,,,,,,,,,,,,,,,,,,,,,,,,,,,,,,,,,,,,,,,,,,,1156.6612064999645,1157.6143947999808,1,1,1156.6612064999645,1157.6143947999808,1157.6099383999826,1156.6612064999645,0.43485409999266267,,,,,,,,,,,,,,,,,,,,,,,,,,,,,,,1103-t2,001,3,1,2022_Mar_22_1523,task_complete_blocked_LC_updated,2021.2.3,233.18774648186778,
,,,O,2,,,,,,,,,,,,,,,,,,,,,,,,,,,,,,,,,,,13,0,26,1,,,,,,,,,,,,,,,,,,,,,,,,,,,,,,,,,,,,,,,,,,,,,,,,,,,,,,,,,,,,,,,,,,,,,,,,,,,,,,,,,,,1157.6632778999628,1158.6132804999943,2,1,1157.6632778999628,1158.6132804999943,1158.6108016999788,None,0.5457998000201769,,,,,,,,,,,,,,,,,,,,,,,,,,,,,,,1103-t2,001,3,1,2022_Mar_22_1523,task_complete_blocked_LC_updated,2021.2.3,233.18774648186778,
,,,X,1,,,,,,,,,,,,,,,,,,,,,,,,,,,,,,,,,,,13,1,27,0,,,,,,,,,,,,,,,,,,,,,,,,,,,,,,,,,,,,,,,,,,,,,,,,,,,,,,,,,,,,,,,,,,,,,,,,,,,,,,,,,,,1158.6626288999687,1159.6110151999746,1,1,1158.6626288999687,1159.6110151999746,1159.6076819999726,None,0.6512941000401042,,,,,,,,,,,,,,,,,,,,,,,,,,,,,,,1103-t2,001,3,1,2022_Mar_22_1523,task_complete_blocked_LC_updated,2021.2.3,233.18774648186778,
,,,O,2,,,,,,,,,,,,,,,,,,,,,,,,,,,,,,,,,,,14,0,28,1,,,,,,,,,,,,,,,,,,,,,,,,,,,,,,,,,,,,,,,,,,,,,,,,,,,,,,,,,,,,,,,,,,,,,,,,,,,,,,,,,,,1159.6606362999883,1160.60913409997,2,1,1159.6606362999883,1160.60913409997,1160.60913409997,1159.6606362999883,0.4053993999841623,,,,,,,,,,,,,,,,,,,,,,,,,,,,,,,1103-t2,001,3,1,2022_Mar_22_1523,task_complete_blocked_LC_updated,2021.2.3,233.18774648186778,
,,,X,1,,,,,,,,,,,,,,,,,,,,,,,,,,,,,,,,,,,14,1,29,0,,,,,,,,,,,,,,,,,,,,,,,,,,,,,,,,,,,,,,,,,,,,,,,,,,,,,,,,,,,,,,,,,,,,,,,,,,,,,,,,,,,1160.6625467999838,1161.6121596999583,1,1,1160.6625467999838,1161.6121596999583,1161.6080587999895,None,0.3273555000196211,,,,,,,,,,,,,,,,,,,,,,,,,,,,,,,1103-t2,001,3,1,2022_Mar_22_1523,task_complete_blocked_LC_updated,2021.2.3,233.18774648186778,
,,,O,2,,,,,,,,,,,,,,,,,,,,,,,,,,,,,,,,,,,15,0,30,1,,,,,,,,,,,,,,,,,,,,,,,,,,,,,,,,,,,,,,,,,,,,,,,,,,,,,,,,,,,,,,,,,,,,,,,,,,,,,,,,,,,1161.661255599989,1162.6150364999776,2,1,1161.661255599989,1162.6150364999776,1162.611582099984,1161.661255599989,0.37266759999329224,,,,,,,,,,,,,,,,,,,,,,,,,,,,,,,1103-t2,001,3,1,2022_Mar_22_1523,task_complete_blocked_LC_updated,2021.2.3,233.18774648186778,
,,,X,1,,,,,,,,,,,,,,,,,,,,,,,,,,,,,,,,,,,15,1,31,0,,,,,,,,,,,,,,,,,,,,,,,,,,,,,,,,,,,,,,,,,,,,,,,,,,,,,,,,,,,,,,,,,,,,,,,,,,,,,,,,,,,1162.6632885999861,1163.6163168000057,1,1,1162.6632885999861,1163.6163168000057,1163.6120087999734,None,0.3607137000071816,,,,,,,,,,,,,,,,,,,,,,,,,,,,,,,1103-t2,001,3,1,2022_Mar_22_1523,task_complete_blocked_LC_updated,2021.2.3,233.18774648186778,
