stimImg,taskType,audTrial,letter,correctResponse,encode_trials1.thisRepN,encode_trials1.thisTrialN,encode_trials1.thisN,encode_trials1.thisIndex,encode_trials2.thisRepN,encode_trials2.thisTrialN,encode_trials2.thisN,encode_trials2.thisIndex,distractor.thisRepN,distractor.thisTrialN,distractor.thisN,distractor.thisIndex,encode_trials3.thisRepN,encode_trials3.thisTrialN,encode_trials3.thisN,encode_trials3.thisIndex,encode_trials4.thisRepN,encode_trials4.thisTrialN,encode_trials4.thisN,encode_trials4.thisIndex,distractor_2.thisRepN,distractor_2.thisTrialN,distractor_2.thisN,distractor_2.thisIndex,encode_trials5.thisRepN,encode_trials5.thisTrialN,encode_trials5.thisN,encode_trials5.thisIndex,encode_trials6.thisRepN,encode_trials6.thisTrialN,encode_trials6.thisN,encode_trials6.thisIndex,distractor3.thisRepN,distractor3.thisTrialN,distractor3.thisN,distractor3.thisIndex,button_check_1.started,button_check_1.stopped,button_check_resp_1.keys,button_check_resp_1.rt,button_check_resp_1.started,button_check_resp_1.stopped,text_2.started,text_2.stopped,key_resp_3.keys,key_resp_3.rt,key_resp_3.started,key_resp_3.stopped,text_3.started,text_3.stopped,key_resp_4.keys,key_resp_4.rt,key_resp_4.started,key_resp_4.stopped,text_4.started,text_4.stopped,key_resp_5.keys,key_resp_5.rt,key_resp_5.started,key_resp_5.stopped,wait_text.started,wait_text.stopped,scanner_pulse.keys,scanner_pulse.rt,scanner_pulse.started,scanner_pulse.stopped,Trial_cue_onset,instruction.started,instruction.stopped,image_3.started,image_3.stopped,in_.started,in_.stopped,source_cue.started,source_cue.stopped,fixation.started,fixation.stopped,Response_cue_onset,rating.started,rating.stopped,text.started,text.stopped,rating_resp.keys,rating_resp.started,rating_resp.stopped,text_16.started,text_16.stopped,instruc.started,instruc.stopped,distractor_task.started,distractor_task.stopped,distractor_task_resp.keys,distractor_task_resp.corr,distractor_task_resp.started,distractor_task_resp.stopped,flicker.started,flicker.stopped,end_screen.started,end_screen.stopped,spacebar_press.keys,spacebar_press.rt,spacebar_press.started,spacebar_press.stopped,one_moment.started,one_moment.stopped,participant,session,group,university,date,expName,psychopyVersion,frameRate,
,,,,,,,,,,,,,,,,,,,,,,,,,,,,,,,,,,,,,,,,,146.8179401999805,None,1,9.80755260004662,146.8179401999805,None,,,,,,,,,,,,,,,,,,,,,,,,,,,,,,,,,,,,,,,,,,,,,,,,,,,,,,,,,,,,,,,,TestSD,001,1,UA,2022_Feb_17_1029,task_complete_blocked_LC_updated,2021.2.3,243.37413937475011,
,,,,,,,,,,,,,,,,,,,,,,,,,,,,,,,,,,,,,,,,,,,,,,,156.64407690009102,None,2,1.1175992998760194,156.64407690009102,None,,,,,,,,,,,,,,,,,,,,,,,,,,,,,,,,,,,,,,,,,,,,,,,,,,,,,,,,,,TestSD,001,1,UA,2022_Feb_17_1029,task_complete_blocked_LC_updated,2021.2.3,243.37413937475011,
,,,,,,,,,,,,,,,,,,,,,,,,,,,,,,,,,,,,,,,,,,,,,,,,,,,,,157.77560500008985,None,3,0.777954800054431,157.77560500008985,None,,,,,,,,,,,,,,,,,,,,,,,,,,,,,,,,,,,,,,,,,,,,,,,,,,,,TestSD,001,1,UA,2022_Feb_17_1029,task_complete_blocked_LC_updated,2021.2.3,243.37413937475011,
,,,,,,,,,,,,,,,,,,,,,,,,,,,,,,,,,,,,,,,,,,,,,,,,,,,,,,,,,,,158.56336720008403,None,4,0.8064057999290526,158.56336720008403,None,,,,,,,,,,,,,,,,,,,,,,,,,,,,,,,,,,,,,,,,,,,,,,TestSD,001,1,UA,2022_Feb_17_1029,task_complete_blocked_LC_updated,2021.2.3,243.37413937475011,
,,,,,,,,,,,,,,,,,,,,,,,,,,,,,,,,,,,,,,,,,,,,,,,,,,,,,,,,,,,,,,,,,159.37607949995436,None,5,7.909754700027406,159.37607949995436,None,,,,,,,,,,,,,,,,,,,,,,,,,,,,,,,,,,,,,,,,TestSD,001,1,UA,2022_Feb_17_1029,task_complete_blocked_LC_updated,2021.2.3,243.37413937475011,
stimulus_images/ABALLBEAR.jpg,SPACE,0,,,0,0,0,4,,,,,,,,,,,,,,,,,,,,,,,,,,,,,,,,,,,,,,,,,,,,,,,,,,,,,,,,,,,,,,,2.500135451555252e-06,167.3267864000518,169.3292042000685,167.3267864000518,169.3292042000685,168.32361910003237,169.32543569989502,168.32361910003237,169.32543569989502,169.32543569989502,None,5.983998300042003,173.29799330001697,None,173.29799330001697,None,None,173.29799330001697,None,179.30097589991055,None,,,,,,,,,,,,,,,,,,,TestSD,001,1,UA,2022_Feb_17_1029,task_complete_blocked_LC_updated,2021.2.3,243.37413937475011,
stimulus_images/A_coin.jpg,SPACE,0,,,0,1,1,0,,,,,,,,,,,,,,,,,,,,,,,,,,,,,,,,,,,,,,,,,,,,,,,,,,,,,,,,,,,,,,,13.996273400029168,181.3229638999328,183.32199359987862,181.3229638999328,183.32199359987862,182.31532160006464,183.31872930005193,182.31532160006464,183.31872930005193,183.31448139995337,None,19.997798199998215,187.31107100006193,None,187.31107100006193,None,None,187.31107100006193,None,193.31403540004976,None,,,,,,,,,,,,,,,,,,,TestSD,001,1,UA,2022_Feb_17_1029,task_complete_blocked_LC_updated,2021.2.3,243.37413937475011,
stimulus_images/ACANDLE30.jpg,SPACE,0,,,0,2,2,7,,,,,,,,,,,,,,,,,,,,,,,,,,,,,,,,,,,,,,,,,,,,,,,,,,,,,,,,,,,,,,,28.005063000135124,195.3285030000843,197.3302700999193,195.3285030000843,197.3302700999193,196.32509699999355,197.32705319998786,196.32509699999355,197.32705319998786,197.32304510008544,None,34.00807760003954,201.32198420003988,None,201.32198420003988,None,None,201.32198420003988,None,207.3283834999893,None,,,,,,,,,,,,,,,,,,,TestSD,001,1,UA,2022_Feb_17_1029,task_complete_blocked_LC_updated,2021.2.3,243.37413937475011,
stimulus_images/Abeaver.jpg,SPACE,0,,,0,3,3,5,,,,,,,,,,,,,,,,,,,,,,,,,,,,,,,,,,,,,,,,,,,,,,,,,,,,,,,,,,,,,,,42.017123100114986,209.34002889995463,211.3445271998644,209.34002889995463,211.3445271998644,210.33966579986736,211.3445271998644,210.33966579986736,211.3445271998644,211.33983150008135,None,48.0202270001173,215.33417570008896,None,215.33417570008896,None,None,215.33417570008896,None,221.33526080008596,None,,,,,,,,,,,,,,,,,,,TestSD,001,1,UA,2022_Feb_17_1029,task_complete_blocked_LC_updated,2021.2.3,243.37413937475011,
stimulus_images/Aammonitefo14.jpg,SPACE,1,,,0,4,4,2,,,,,,,,,,,,,,,,,,,,,,,,,,,,,,,,,,,,,,,,,,,,,,,,,,,,,,,,,,,,,,,56.024735799990594,223.34799479995854,225.3523965999484,223.34799479995854,225.3523965999484,224.3499733998906,225.3523965999484,224.3499733998906,225.3523965999484,225.3489051000215,None,62.0272892001085,229.3415031998884,None,229.3415031998884,None,None,229.3415031998884,None,235.33949330006726,None,,,,,,,,,,,,,,,,,,,TestSD,001,1,UA,2022_Feb_17_1029,task_complete_blocked_LC_updated,2021.2.3,243.37413937475011,
stimulus_images/Abottleofbat2.jpg,SPACE,1,,,0,5,5,6,,,,,,,,,,,,,,,,,,,,,,,,,,,,,,,,,,,,,,,,,,,,,,,,,,,,,,,,,,,,,,,69.03148460015655,236.36251059989445,238.3627285999246,236.36251059989445,238.3627285999246,237.35462890006602,238.35942459991202,237.35462890006602,238.35942459991202,238.35563839995302,None,75.03676900011487,242.35520419990644,None,242.35520419990644,None,None,242.35520419990644,None,248.35162319988012,None,,,,,,,,,,,,,,,,,,,TestSD,001,1,UA,2022_Feb_17_1029,task_complete_blocked_LC_updated,2021.2.3,243.37413937475011,
stimulus_images/ADRYWOOD.jpg,SPACE,0,,,0,6,6,9,,,,,,,,,,,,,,,,,,,,,,,,,,,,,,,,,,,,,,,,,,,,,,,,,,,,,,,,,,,,,,,84.0414180001244,251.36491389991716,253.36535899993032,251.36491389991716,253.36535899993032,252.36631019995548,253.3682603999041,252.36631019995548,253.3682603999041,253.3608001000248,None,90.04242980014533,257.35657340008765,None,257.35657340008765,None,None,257.35657340008765,None,263.36076499987394,None,,,,,,,,,,,,,,,,,,,TestSD,001,1,UA,2022_Feb_17_1029,task_complete_blocked_LC_updated,2021.2.3,243.37413937475011,
stimulus_images/Acocktailumb4.jpg,SPACE,0,,,0,7,7,8,,,,,,,,,,,,,,,,,,,,,,,,,,,,,,,,,,,,,,,,,,,,,,,,,,,,,,,,,,,,,,,97.04990099999122,264.3720048000105,266.37696620007046,264.3720048000105,266.37696620007046,265.3708784999326,266.372599999886,265.3708784999326,266.372599999886,266.372599999886,None,103.05236430000514,270.365731399972,None,270.365731399972,None,None,270.365731399972,None,276.3685574999545,None,,,,,,,,,,,,,,,,,,,TestSD,001,1,UA,2022_Feb_17_1029,task_complete_blocked_LC_updated,2021.2.3,243.37413937475011,
stimulus_images/AARCCHAR2.jpg,SPACE,0,,,0,8,8,3,,,,,,,,,,,,,,,,,,,,,,,,,,,,,,,,,,,,,,,,,,,,,,,,,,,,,,,,,,,,,,,110.05844940012321,277.3808253998868,279.38109909999184,277.3808253998868,279.38109909999184,278.374508399982,279.37689940002747,278.374508399982,279.37689940002747,279.37689940002747,None,116.06275820010342,283.3766024999786,None,283.3766024999786,None,None,283.3766024999786,None,289.3742720000446,None,,,,,,,,,,,,,,,,,,,TestSD,001,1,UA,2022_Feb_17_1029,task_complete_blocked_LC_updated,2021.2.3,243.37413937475011,
stimulus_images/A56THUND4.jpg,SPACE,0,,,0,9,9,1,,,,,,,,,,,,,,,,,,,,,,,,,,,,,,,,,,,,,,,,,,,,,,,,,,,,,,,,,,,,,,,124.06266709999181,291.37906110007316,293.3845903999172,291.37906110007316,293.3845903999172,292.3787859000731,293.3845903999172,292.3787859000731,293.3845903999172,293.37891279999167,None,130.0674984001089,297.3816813000012,None,297.3816813000012,None,None,297.3816813000012,None,303.3810457000509,None,,,,,,,,,,,,,,,,,,,TestSD,001,1,UA,2022_Feb_17_1029,task_complete_blocked_LC_updated,2021.2.3,243.37413937475011,
stimulus_images/AMUSISTA2.jpg,SPACE,0,,,,,,,0,0,0,2,,,,,,,,,,,,,,,,,,,,,,,,,,,,,,,,,,,,,,,,,,,,,,,,,,,,,,,,,,,138.0775351000484,305.39428270002827,307.3935120999813,305.39428270002827,307.3935120999813,306.3901382999029,307.39001089986414,306.3901382999029,307.39001089986414,307.39001089986414,None,144.07387970015407,311.38810639991425,None,311.38810639991425,None,None,311.38810639991425,None,317.39007269986905,None,,,,,,,,,,,,,,,,,,,TestSD,001,1,UA,2022_Feb_17_1029,task_complete_blocked_LC_updated,2021.2.3,243.37413937475011,
stimulus_images/Aancientston3.jpg,SPACE,0,,,,,,,0,1,1,9,,,,,,,,,,,,,,,,,,,,,,,,,,,,,,,,,,,,,,,,,,,,,,,,,,,,,,,,,,,151.07951549999416,318.39596679992974,320.4024660999421,318.39596679992974,320.4024660999421,319.39183029998094,320.39792350004427,319.39183029998094,320.39792350004427,320.39792350004427,None,157.0803281001281,324.3942487000022,None,324.3942487000022,None,None,324.3942487000022,None,330.3982601000462,None,,,,,,,,,,,,,,,,,,,TestSD,001,1,UA,2022_Feb_17_1029,task_complete_blocked_LC_updated,2021.2.3,243.37413937475011,
stimulus_images/AGLASSFL4.jpg,SPACE,1,,,,,,,0,2,2,0,,,,,,,,,,,,,,,,,,,,,,,,,,,,,,,,,,,,,,,,,,,,,,,,,,,,,,,,,,,166.086115000071,333.4088518000208,335.4102020000573,333.4088518000208,335.4102020000573,334.4091373998672,335.4102020000573,334.4091373998672,335.4102020000573,335.4073645998724,None,172.0887980000116,339.403964899946,None,339.403964899946,None,None,339.403964899946,None,345.40194880007766,None,,,,,,,,,,,,,,,,,,,TestSD,001,1,UA,2022_Feb_17_1029,task_complete_blocked_LC_updated,2021.2.3,243.37413937475011,
stimulus_images/weddingdress.jpg,SPACE,0,,,,,,,0,3,3,6,,,,,,,,,,,,,,,,,,,,,,,,,,,,,,,,,,,,,,,,,,,,,,,,,,,,,,,,,,,181.09015329997055,348.4138976999093,350.4147920999676,348.4138976999093,350.4147920999676,349.41379850008525,350.4147920999676,349.41379850008525,350.4147920999676,350.41178449988365,None,187.0926683000289,354.4067432999145,None,354.4067432999145,None,None,354.4067432999145,None,360.4070876999758,None,,,,,,,,,,,,,,,,,,,TestSD,001,1,UA,2022_Feb_17_1029,task_complete_blocked_LC_updated,2021.2.3,243.37413937475011,
stimulus_images/beanbagchair.jpg,SPACE,0,,,,,,,0,4,4,5,,,,,,,,,,,,,,,,,,,,,,,,,,,,,,,,,,,,,,,,,,,,,,,,,,,,,,,,,,,195.09622960002162,362.41725219995715,364.41841769986786,362.41725219995715,364.41841769986786,363.4059011999052,364.4074512999505,363.4059011999052,364.4074512999505,364.4074512999505,None,201.09678649995476,368.4105378999375,None,368.4105378999375,None,None,368.4105378999375,None,374.4122126000002,None,,,,,,,,,,,,,,,,,,,TestSD,001,1,UA,2022_Feb_17_1029,task_complete_blocked_LC_updated,2021.2.3,243.37413937475011,
stimulus_images/Astereo30.jpg,SPACE,1,,,,,,,0,5,5,4,,,,,,,,,,,,,,,,,,,,,,,,,,,,,,,,,,,,,,,,,,,,,,,,,,,,,,,,,,,208.10092310002074,375.41736810002476,377.418716999935,375.41736810002476,377.418716999935,376.4117405000143,377.4112003999762,376.4117405000143,377.4112003999762,377.4112003999762,None,214.1009069001302,381.41456789989024,None,381.41456789989024,None,None,381.41456789989024,None,387.4190104000736,None,,,,,,,,,,,,,,,,,,,TestSD,001,1,UA,2022_Feb_17_1029,task_complete_blocked_LC_updated,2021.2.3,243.37413937475011,
stimulus_images/A_flower.jpg,SPACE,0,,,,,,,0,6,6,7,,,,,,,,,,,,,,,,,,,,,,,,,,,,,,,,,,,,,,,,,,,,,,,,,,,,,,,,,,,223.10867889993824,390.42419819999486,392.4274514000863,390.42419819999486,392.4274514000863,391.42264429992065,392.4274514000863,391.42264429992065,392.4274514000863,392.42333050002344,None,229.11037619994022,396.42414149991237,None,396.42414149991237,None,None,396.42414149991237,None,402.42359520005994,None,,,,,,,,,,,,,,,,,,,TestSD,001,1,UA,2022_Feb_17_1029,task_complete_blocked_LC_updated,2021.2.3,243.37413937475011,
stimulus_images/Aribbon21.jpg,SPACE,0,,,,,,,0,7,7,3,,,,,,,,,,,,,,,,,,,,,,,,,,,,,,,,,,,,,,,,,,,,,,,,,,,,,,,,,,,238.11140529997647,405.4303661000449,407.4324618000537,405.4303661000449,407.4324618000537,406.426939799916,407.4324618000537,406.426939799916,407.4324618000537,407.4274786999449,None,244.11391810001805,411.42869669990614,None,411.42869669990614,None,None,411.42869669990614,None,417.4322267000098,None,,,,,,,,,,,,,,,,,,,TestSD,001,1,UA,2022_Feb_17_1029,task_complete_blocked_LC_updated,2021.2.3,243.37413937475011,
stimulus_images/AHIGCHAIR.jpg,SPACE,0,,,,,,,0,8,8,1,,,,,,,,,,,,,,,,,,,,,,,,,,,,,,,,,,,,,,,,,,,,,,,,,,,,,,,,,,,253.12094340007752,420.44659930001944,422.4483719000127,420.44659930001944,422.4483719000127,421.44300580001436,422.4483719000127,421.44300580001436,422.4483719000127,422.44492690009065,None,259.1251334999688,426.43804610008374,None,426.43804610008374,None,None,426.43804610008374,None,432.4390839000698,None,,,,,,,,,,,,,,,,,,,TestSD,001,1,UA,2022_Feb_17_1029,task_complete_blocked_LC_updated,2021.2.3,243.37413937475011,
stimulus_images/AABSTRACT.jpg,SPACE,1,,,,,,,0,9,9,8,,,,,,,,,,,,,,,,,,,,,,,,,,,,,,,,,,,,,,,,,,,,,,,,,,,,,,,,,,,267.13105540000834,434.45313129993156,436.4566627999302,434.45313129993156,436.4566627999302,435.4500736000482,436.45258680009283,435.4500736000482,436.45258680009283,436.45258680009283,None,273.13470580009744,440.45164730004035,None,440.45164730004035,None,None,440.45164730004035,None,446.4481607999187,None,,,,,,,,,,,,,,,,,,,TestSD,001,1,UA,2022_Feb_17_1029,task_complete_blocked_LC_updated,2021.2.3,243.37413937475011,
,,,O,2,,,,,,,,,0,0,0,1,,,,,,,,,,,,,,,,,,,,,,,,,,,,,,,,,,,,,,,,,,,,,,,,,,,,,,,,,,,,,,,,,,,,,,,,,,,,447.4518341999501,None,450.46067549986765,451.4151335998904,None,0,450.46067549986765,451.4151335998904,451.41173200006597,None,,,,,,,,,TestSD,001,1,UA,2022_Feb_17_1029,task_complete_blocked_LC_updated,2021.2.3,243.37413937475011,
,,,X,1,,,,,,,,,0,1,1,0,,,,,,,,,,,,,,,,,,,,,,,,,,,,,,,,,,,,,,,,,,,,,,,,,,,,,,,,,,,,,,,,,,,,,,,,,,,,,,451.46259250002913,452.41916629998013,None,0,451.46259250002913,452.41916629998013,452.41338189993985,None,,,,,,,,,TestSD,001,1,UA,2022_Feb_17_1029,task_complete_blocked_LC_updated,2021.2.3,243.37413937475011,
,,,O,2,,,,,,,,,1,0,2,1,,,,,,,,,,,,,,,,,,,,,,,,,,,,,,,,,,,,,,,,,,,,,,,,,,,,,,,,,,,,,,,,,,,,,,,,,,,,,,452.45438280003145,453.40701849991456,None,0,452.45438280003145,453.40701849991456,453.40083840000443,None,,,,,,,,,TestSD,001,1,UA,2022_Feb_17_1029,task_complete_blocked_LC_updated,2021.2.3,243.37413937475011,
,,,X,1,,,,,,,,,1,1,3,0,,,,,,,,,,,,,,,,,,,,,,,,,,,,,,,,,,,,,,,,,,,,,,,,,,,,,,,,,,,,,,,,,,,,,,,,,,,,,,453.45503220008686,454.4080135000404,None,0,453.45503220008686,454.4080135000404,454.4046253000852,None,,,,,,,,,TestSD,001,1,UA,2022_Feb_17_1029,task_complete_blocked_LC_updated,2021.2.3,243.37413937475011,
,,,X,1,,,,,,,,,2,0,4,0,,,,,,,,,,,,,,,,,,,,,,,,,,,,,,,,,,,,,,,,,,,,,,,,,,,,,,,,,,,,,,,,,,,,,,,,,,,,,,454.4540138000157,455.4067635999527,None,0,454.4540138000157,455.4067635999527,455.40093509992585,None,,,,,,,,,TestSD,001,1,UA,2022_Feb_17_1029,task_complete_blocked_LC_updated,2021.2.3,243.37413937475011,
,,,O,2,,,,,,,,,2,1,5,1,,,,,,,,,,,,,,,,,,,,,,,,,,,,,,,,,,,,,,,,,,,,,,,,,,,,,,,,,,,,,,,,,,,,,,,,,,,,,,455.45516650006175,456.40714949998073,None,0,455.45516650006175,456.40714949998073,456.40388199989684,None,,,,,,,,,TestSD,001,1,UA,2022_Feb_17_1029,task_complete_blocked_LC_updated,2021.2.3,243.37413937475011,
,,,X,1,,,,,,,,,3,0,6,0,,,,,,,,,,,,,,,,,,,,,,,,,,,,,,,,,,,,,,,,,,,,,,,,,,,,,,,,,,,,,,,,,,,,,,,,,,,,,,456.45633210008964,457.4073803999927,None,0,456.45633210008964,457.4073803999927,457.40321079990827,None,,,,,,,,,TestSD,001,1,UA,2022_Feb_17_1029,task_complete_blocked_LC_updated,2021.2.3,243.37413937475011,
,,,O,2,,,,,,,,,3,1,7,1,,,,,,,,,,,,,,,,,,,,,,,,,,,,,,,,,,,,,,,,,,,,,,,,,,,,,,,,,,,,,,,,,,,,,,,,,,,,,,457.45438960008323,458.4069204998668,None,0,457.45438960008323,458.4069204998668,458.4028239999898,None,,,,,,,,,TestSD,001,1,UA,2022_Feb_17_1029,task_complete_blocked_LC_updated,2021.2.3,243.37413937475011,
,,,X,1,,,,,,,,,4,0,8,0,,,,,,,,,,,,,,,,,,,,,,,,,,,,,,,,,,,,,,,,,,,,,,,,,,,,,,,,,,,,,,,,,,,,,,,,,,,,,,458.4541392000392,459.40740870009176,None,0,458.4541392000392,459.40740870009176,459.40282230009325,None,,,,,,,,,TestSD,001,1,UA,2022_Feb_17_1029,task_complete_blocked_LC_updated,2021.2.3,243.37413937475011,
,,,O,2,,,,,,,,,4,1,9,1,,,,,,,,,,,,,,,,,,,,,,,,,,,,,,,,,,,,,,,,,,,,,,,,,,,,,,,,,,,,,,,,,,,,,,,,,,,,,,459.455021899892,460.40732980007306,None,0,459.455021899892,460.40732980007306,460.4040162998717,None,,,,,,,,,TestSD,001,1,UA,2022_Feb_17_1029,task_complete_blocked_LC_updated,2021.2.3,243.37413937475011,
,,,X,1,,,,,,,,,5,0,10,0,,,,,,,,,,,,,,,,,,,,,,,,,,,,,,,,,,,,,,,,,,,,,,,,,,,,,,,,,,,,,,,,,,,,,,,,,,,,,,460.45722079998814,461.4123325999826,None,0,460.45722079998814,461.4123325999826,461.4085269998759,None,,,,,,,,,TestSD,001,1,UA,2022_Feb_17_1029,task_complete_blocked_LC_updated,2021.2.3,243.37413937475011,
,,,O,2,,,,,,,,,5,1,11,1,,,,,,,,,,,,,,,,,,,,,,,,,,,,,,,,,,,,,,,,,,,,,,,,,,,,,,,,,,,,,,,,,,,,,,,,,,,,,,461.4541468999814,462.4100871998817,None,0,461.4541468999814,462.4100871998817,462.4100871998817,None,,,,,,,,,TestSD,001,1,UA,2022_Feb_17_1029,task_complete_blocked_LC_updated,2021.2.3,243.37413937475011,
,,,X,1,,,,,,,,,6,0,12,0,,,,,,,,,,,,,,,,,,,,,,,,,,,,,,,,,,,,,,,,,,,,,,,,,,,,,,,,,,,,,,,,,,,,,,,,,,,,,,462.4600307000801,463.414183099987,None,0,462.4600307000801,463.414183099987,463.40469600004144,None,,,,,,,,,TestSD,001,1,UA,2022_Feb_17_1029,task_complete_blocked_LC_updated,2021.2.3,243.37413937475011,
,,,O,2,,,,,,,,,6,1,13,1,,,,,,,,,,,,,,,,,,,,,,,,,,,,,,,,,,,,,,,,,,,,,,,,,,,,,,,,,,,,,,,,,,,,,,,,,,,,,,463.45614059991203,464.4109209999442,None,0,463.45614059991203,464.4109209999442,464.40583169995807,None,,,,,,,,,TestSD,001,1,UA,2022_Feb_17_1029,task_complete_blocked_LC_updated,2021.2.3,243.37413937475011,
,,,O,2,,,,,,,,,7,0,14,1,,,,,,,,,,,,,,,,,,,,,,,,,,,,,,,,,,,,,,,,,,,,,,,,,,,,,,,,,,,,,,,,,,,,,,,,,,,,,,464.4539278000593,465.4077194998972,None,0,464.4539278000593,465.4077194998972,465.40309710009024,None,,,,,,,,,TestSD,001,1,UA,2022_Feb_17_1029,task_complete_blocked_LC_updated,2021.2.3,243.37413937475011,
,,,X,1,,,,,,,,,7,1,15,0,,,,,,,,,,,,,,,,,,,,,,,,,,,,,,,,,,,,,,,,,,,,,,,,,,,,,,,,,,,,,,,,,,,,,,,,,,,,,,465.4551228999626,466.4075293999631,None,0,465.4551228999626,466.4075293999631,466.4034994998947,None,,,,,,,,,TestSD,001,1,UA,2022_Feb_17_1029,task_complete_blocked_LC_updated,2021.2.3,243.37413937475011,
,,,O,2,,,,,,,,,8,0,16,1,,,,,,,,,,,,,,,,,,,,,,,,,,,,,,,,,,,,,,,,,,,,,,,,,,,,,,,,,,,,,,,,,,,,,,,,,,,,,,466.4543216000311,467.41116650006734,None,0,466.4543216000311,467.41116650006734,467.40532279992476,None,,,,,,,,,TestSD,001,1,UA,2022_Feb_17_1029,task_complete_blocked_LC_updated,2021.2.3,243.37413937475011,
,,,X,1,,,,,,,,,8,1,17,0,,,,,,,,,,,,,,,,,,,,,,,,,,,,,,,,,,,,,,,,,,,,,,,,,,,,,,,,,,,,,,,,,,,,,,,,,,,,,,467.45557469991036,468.41107130004093,None,0,467.45557469991036,468.41107130004093,468.4051466998644,None,,,,,,,,,TestSD,001,1,UA,2022_Feb_17_1029,task_complete_blocked_LC_updated,2021.2.3,243.37413937475011,
,,,X,1,,,,,,,,,9,0,18,0,,,,,,,,,,,,,,,,,,,,,,,,,,,,,,,,,,,,,,,,,,,,,,,,,,,,,,,,,,,,,,,,,,,,,,,,,,,,,,468.4543270000722,469.40694539994,None,0,468.4543270000722,469.40694539994,469.4010187999811,None,,,,,,,,,TestSD,001,1,UA,2022_Feb_17_1029,task_complete_blocked_LC_updated,2021.2.3,243.37413937475011,
,,,O,2,,,,,,,,,9,1,19,1,,,,,,,,,,,,,,,,,,,,,,,,,,,,,,,,,,,,,,,,,,,,,,,,,,,,,,,,,,,,,,,,,,,,,,,,,,,,,,469.45520139997825,470.41454689996317,None,0,469.45520139997825,470.41454689996317,470.40576320001855,None,,,,,,,,,TestSD,001,1,UA,2022_Feb_17_1029,task_complete_blocked_LC_updated,2021.2.3,243.37413937475011,
,,,O,2,,,,,,,,,10,0,20,1,,,,,,,,,,,,,,,,,,,,,,,,,,,,,,,,,,,,,,,,,,,,,,,,,,,,,,,,,,,,,,,,,,,,,,,,,,,,,,470.4645310998894,471.4167470999528,None,0,470.4645310998894,471.4167470999528,471.408053799998,None,,,,,,,,,TestSD,001,1,UA,2022_Feb_17_1029,task_complete_blocked_LC_updated,2021.2.3,243.37413937475011,
,,,X,1,,,,,,,,,10,1,21,0,,,,,,,,,,,,,,,,,,,,,,,,,,,,,,,,,,,,,,,,,,,,,,,,,,,,,,,,,,,,,,,,,,,,,,,,,,,,,,471.4555679000914,472.4108400000259,None,0,471.4555679000914,472.4108400000259,472.4049615999684,None,,,,,,,,,TestSD,001,1,UA,2022_Feb_17_1029,task_complete_blocked_LC_updated,2021.2.3,243.37413937475011,
,,,O,2,,,,,,,,,11,0,22,1,,,,,,,,,,,,,,,,,,,,,,,,,,,,,,,,,,,,,,,,,,,,,,,,,,,,,,,,,,,,,,,,,,,,,,,,,,,,,,472.4540293000173,473.4038714999333,None,0,472.4540293000173,473.4038714999333,473.4004116000142,None,,,,,,,,,TestSD,001,1,UA,2022_Feb_17_1029,task_complete_blocked_LC_updated,2021.2.3,243.37413937475011,
,,,X,1,,,,,,,,,11,1,23,0,,,,,,,,,,,,,,,,,,,,,,,,,,,,,,,,,,,,,,,,,,,,,,,,,,,,,,,,,,,,,,,,,,,,,,,,,,,,,,473.45439859991893,474.4076386000961,None,0,473.45439859991893,474.4076386000961,474.4029607998673,None,,,,,,,,,TestSD,001,1,UA,2022_Feb_17_1029,task_complete_blocked_LC_updated,2021.2.3,243.37413937475011,
,,,X,1,,,,,,,,,12,0,24,0,,,,,,,,,,,,,,,,,,,,,,,,,,,,,,,,,,,,,,,,,,,,,,,,,,,,,,,,,,,,,,,,,,,,,,,,,,,,,,474.45398360001855,475.4112849999219,None,0,474.45398360001855,475.4112849999219,475.40644549997523,None,,,,,,,,,TestSD,001,1,UA,2022_Feb_17_1029,task_complete_blocked_LC_updated,2021.2.3,243.37413937475011,
,,,O,2,,,,,,,,,12,1,25,1,,,,,,,,,,,,,,,,,,,,,,,,,,,,,,,,,,,,,,,,,,,,,,,,,,,,,,,,,,,,,,,,,,,,,,,,,,,,,,475.45878969994374,476.4114554000553,None,0,475.45878969994374,476.4114554000553,476.4071960998699,None,,,,,,,,,TestSD,001,1,UA,2022_Feb_17_1029,task_complete_blocked_LC_updated,2021.2.3,243.37413937475011,
,,,O,2,,,,,,,,,13,0,26,1,,,,,,,,,,,,,,,,,,,,,,,,,,,,,,,,,,,,,,,,,,,,,,,,,,,,,,,,,,,,,,,,,,,,,,,,,,,,,,476.455142499879,477.4082863999065,None,0,476.455142499879,477.4082863999065,477.4051769000944,None,,,,,,,,,TestSD,001,1,UA,2022_Feb_17_1029,task_complete_blocked_LC_updated,2021.2.3,243.37413937475011,
,,,X,1,,,,,,,,,13,1,27,0,,,,,,,,,,,,,,,,,,,,,,,,,,,,,,,,,,,,,,,,,,,,,,,,,,,,,,,,,,,,,,,,,,,,,,,,,,,,,,477.4542276998982,478.40747179999016,None,0,477.4542276998982,478.40747179999016,478.40136929997243,None,,,,,,,,,TestSD,001,1,UA,2022_Feb_17_1029,task_complete_blocked_LC_updated,2021.2.3,243.37413937475011,
,,,X,1,,,,,,,,,14,0,28,0,,,,,,,,,,,,,,,,,,,,,,,,,,,,,,,,,,,,,,,,,,,,,,,,,,,,,,,,,,,,,,,,,,,,,,,,,,,,,,478.4545068000443,479.4078720000107,None,0,478.4545068000443,479.4078720000107,479.404127900023,None,,,,,,,,,TestSD,001,1,UA,2022_Feb_17_1029,task_complete_blocked_LC_updated,2021.2.3,243.37413937475011,
,,,O,2,,,,,,,,,14,1,29,1,,,,,,,,,,,,,,,,,,,,,,,,,,,,,,,,,,,,,,,,,,,,,,,,,,,,,,,,,,,,,,,,,,,,,,,,,,,,,,479.4558486000169,480.40771010005847,None,0,479.4558486000169,480.40771010005847,480.40402640006505,None,,,,,,,,,TestSD,001,1,UA,2022_Feb_17_1029,task_complete_blocked_LC_updated,2021.2.3,243.37413937475011,
,,,O,2,,,,,,,,,15,0,30,1,,,,,,,,,,,,,,,,,,,,,,,,,,,,,,,,,,,,,,,,,,,,,,,,,,,,,,,,,,,,,,,,,,,,,,,,,,,,,,480.45434709987603,481.4073210998904,None,0,480.45434709987603,481.4073210998904,481.401128700003,None,,,,,,,,,TestSD,001,1,UA,2022_Feb_17_1029,task_complete_blocked_LC_updated,2021.2.3,243.37413937475011,
,,,X,1,,,,,,,,,15,1,31,0,,,,,,,,,,,,,,,,,,,,,,,,,,,,,,,,,,,,,,,,,,,,,,,,,,,,,,,,,,,,,,,,,,,,,,,,,,,,,,481.4553354999516,482.4110811999999,None,0,481.4553354999516,482.4110811999999,482.4055115999654,None,,,,,,,,,TestSD,001,1,UA,2022_Feb_17_1029,task_complete_blocked_LC_updated,2021.2.3,243.37413937475011,
,,,X,1,,,,,,,,,16,0,32,0,,,,,,,,,,,,,,,,,,,,,,,,,,,,,,,,,,,,,,,,,,,,,,,,,,,,,,,,,,,,,,,,,,,,,,,,,,,,,,482.4601926000323,483.4110681999009,None,0,482.4601926000323,483.4110681999009,483.40112220006995,None,,,,,,,,,TestSD,001,1,UA,2022_Feb_17_1029,task_complete_blocked_LC_updated,2021.2.3,243.37413937475011,
,,,O,2,,,,,,,,,16,1,33,1,,,,,,,,,,,,,,,,,,,,,,,,,,,,,,,,,,,,,,,,,,,,,,,,,,,,,,,,,,,,,,,,,,,,,,,,,,,,,,483.456993999891,484.4075142000802,None,0,483.456993999891,484.4075142000802,484.40239099995233,None,,,,,,,,,TestSD,001,1,UA,2022_Feb_17_1029,task_complete_blocked_LC_updated,2021.2.3,243.37413937475011,
,,,X,1,,,,,,,,,17,0,34,0,,,,,,,,,,,,,,,,,,,,,,,,,,,,,,,,,,,,,,,,,,,,,,,,,,,,,,,,,,,,,,,,,,,,,,,,,,,,,,484.45394690008834,485.40721289999783,None,0,484.45394690008834,485.40721289999783,485.4015365000814,None,,,,,,,,,TestSD,001,1,UA,2022_Feb_17_1029,task_complete_blocked_LC_updated,2021.2.3,243.37413937475011,
,,,O,2,,,,,,,,,17,1,35,1,,,,,,,,,,,,,,,,,,,,,,,,,,,,,,,,,,,,,,,,,,,,,,,,,,,,,,,,,,,,,,,,,,,,,,,,,,,,,,485.4554703000467,486.4076282000169,None,0,485.4554703000467,486.4076282000169,486.40382850007154,None,,,,,,,,,TestSD,001,1,UA,2022_Feb_17_1029,task_complete_blocked_LC_updated,2021.2.3,243.37413937475011,
,,,O,2,,,,,,,,,18,0,36,1,,,,,,,,,,,,,,,,,,,,,,,,,,,,,,,,,,,,,,,,,,,,,,,,,,,,,,,,,,,,,,,,,,,,,,,,,,,,,,486.45430439990014,487.4065471999347,None,0,486.45430439990014,487.4065471999347,487.40198009996675,None,,,,,,,,,TestSD,001,1,UA,2022_Feb_17_1029,task_complete_blocked_LC_updated,2021.2.3,243.37413937475011,
,,,X,1,,,,,,,,,18,1,37,0,,,,,,,,,,,,,,,,,,,,,,,,,,,,,,,,,,,,,,,,,,,,,,,,,,,,,,,,,,,,,,,,,,,,,,,,,,,,,,487.45651359995827,488.41012479993515,None,0,487.45651359995827,488.41012479993515,488.4061308000237,None,,,,,,,,,TestSD,001,1,UA,2022_Feb_17_1029,task_complete_blocked_LC_updated,2021.2.3,243.37413937475011,
,,,O,2,,,,,,,,,19,0,38,1,,,,,,,,,,,,,,,,,,,,,,,,,,,,,,,,,,,,,,,,,,,,,,,,,,,,,,,,,,,,,,,,,,,,,,,,,,,,,,488.45791310002096,489.41234340006486,None,0,488.45791310002096,489.41234340006486,489.40659029991366,None,,,,,,,,,TestSD,001,1,UA,2022_Feb_17_1029,task_complete_blocked_LC_updated,2021.2.3,243.37413937475011,
,,,X,1,,,,,,,,,19,1,39,0,,,,,,,,,,,,,,,,,,,,,,,,,,,,,,,,,,,,,,,,,,,,,,,,,,,,,,,,,,,,,,,,,,,,,,,,,,,,,,489.45524140005,490.4085099999793,None,0,489.45524140005,490.4085099999793,490.40450679999776,None,,,,,,,,,TestSD,001,1,UA,2022_Feb_17_1029,task_complete_blocked_LC_updated,2021.2.3,243.37413937475011,
,,,X,1,,,,,,,,,20,0,40,0,,,,,,,,,,,,,,,,,,,,,,,,,,,,,,,,,,,,,,,,,,,,,,,,,,,,,,,,,,,,,,,,,,,,,,,,,,,,,,490.45744740008377,491.4128693998791,None,0,490.45744740008377,491.4128693998791,491.4023368000053,None,,,,,,,,,TestSD,001,1,UA,2022_Feb_17_1029,task_complete_blocked_LC_updated,2021.2.3,243.37413937475011,
,,,O,2,,,,,,,,,20,1,41,1,,,,,,,,,,,,,,,,,,,,,,,,,,,,,,,,,,,,,,,,,,,,,,,,,,,,,,,,,,,,,,,,,,,,,,,,,,,,,,491.45561839989386,492.4078279999085,None,0,491.45561839989386,492.4078279999085,492.40433679986745,None,,,,,,,,,TestSD,001,1,UA,2022_Feb_17_1029,task_complete_blocked_LC_updated,2021.2.3,243.37413937475011,
,,,O,2,,,,,,,,,21,0,42,1,,,,,,,,,,,,,,,,,,,,,,,,,,,,,,,,,,,,,,,,,,,,,,,,,,,,,,,,,,,,,,,,,,,,,,,,,,,,,,492.45355949993245,493.4075319999829,None,0,492.45355949993245,493.4075319999829,493.4040061000269,None,,,,,,,,,TestSD,001,1,UA,2022_Feb_17_1029,task_complete_blocked_LC_updated,2021.2.3,243.37413937475011,
,,,X,1,,,,,,,,,21,1,43,0,,,,,,,,,,,,,,,,,,,,,,,,,,,,,,,,,,,,,,,,,,,,,,,,,,,,,,,,,,,,,,,,,,,,,,,,,,,,,,493.45530569995753,494.407359899953,None,0,493.45530569995753,494.407359899953,494.4016013999935,None,,,,,,,,,TestSD,001,1,UA,2022_Feb_17_1029,task_complete_blocked_LC_updated,2021.2.3,243.37413937475011,
,,,O,2,,,,,,,,,22,0,44,1,,,,,,,,,,,,,,,,,,,,,,,,,,,,,,,,,,,,,,,,,,,,,,,,,,,,,,,,,,,,,,,,,,,,,,,,,,,,,,494.4556660000235,495.40702939988114,None,0,494.4556660000235,495.40702939988114,495.4030794999562,None,,,,,,,,,TestSD,001,1,UA,2022_Feb_17_1029,task_complete_blocked_LC_updated,2021.2.3,243.37413937475011,
,,,X,1,,,,,,,,,22,1,45,0,,,,,,,,,,,,,,,,,,,,,,,,,,,,,,,,,,,,,,,,,,,,,,,,,,,,,,,,,,,,,,,,,,,,,,,,,,,,,,495.45405970001593,496.4046338999178,None,0,495.45405970001593,496.4046338999178,496.40135909989476,None,,,,,,,,,TestSD,001,1,UA,2022_Feb_17_1029,task_complete_blocked_LC_updated,2021.2.3,243.37413937475011,
,,,O,2,,,,,,,,,23,0,46,1,,,,,,,,,,,,,,,,,,,,,,,,,,,,,,,,,,,,,,,,,,,,,,,,,,,,,,,,,,,,,,,,,,,,,,,,,,,,,,496.454528799979,497.40484809991904,None,0,496.454528799979,497.40484809991904,497.4011915998999,None,,,,,,,,,TestSD,001,1,UA,2022_Feb_17_1029,task_complete_blocked_LC_updated,2021.2.3,243.37413937475011,
,,,X,1,,,,,,,,,23,1,47,0,,,,,,,,,,,,,,,,,,,,,,,,,,,,,,,,,,,,,,,,,,,,,,,,,,,,,,,,,,,,,,,,,,,,,,,,,,,,,,497.45336959999986,498.40485429996625,None,0,497.45336959999986,498.40485429996625,498.40112089994363,497.45336959999986,,,,,,,,,TestSD,001,1,UA,2022_Feb_17_1029,task_complete_blocked_LC_updated,2021.2.3,243.37413937475011,
,,,X,1,,,,,,,,,24,0,48,0,,,,,,,,,,,,,,,,,,,,,,,,,,,,,,,,,,,,,,,,,,,,,,,,,,,,,,,,,,,,,,,,,,,,,,,,,,,,,,498.45262530003674,499.407416800037,None,0,498.45262530003674,499.407416800037,499.4026540000923,498.45262530003674,,,,,,,,,TestSD,001,1,UA,2022_Feb_17_1029,task_complete_blocked_LC_updated,2021.2.3,243.37413937475011,
,,,O,2,,,,,,,,,24,1,49,1,,,,,,,,,,,,,,,,,,,,,,,,,,,,,,,,,,,,,,,,,,,,,,,,,,,,,,,,,,,,,,,,,,,,,,,,,,,,,,499.45515789999627,500.4074186999351,None,0,499.45515789999627,500.4074186999351,500.40392880002037,None,,,,,,,,,TestSD,001,1,UA,2022_Feb_17_1029,task_complete_blocked_LC_updated,2021.2.3,243.37413937475011,
,,,X,1,,,,,,,,,25,0,50,0,,,,,,,,,,,,,,,,,,,,,,,,,,,,,,,,,,,,,,,,,,,,,,,,,,,,,,,,,,,,,,,,,,,,,,,,,,,,,,500.4561785000842,501.4095950999763,None,0,500.4561785000842,501.4095950999763,501.405585099943,None,,,,,,,,,TestSD,001,1,UA,2022_Feb_17_1029,task_complete_blocked_LC_updated,2021.2.3,243.37413937475011,
,,,O,2,,,,,,,,,25,1,51,1,,,,,,,,,,,,,,,,,,,,,,,,,,,,,,,,,,,,,,,,,,,,,,,,,,,,,,,,,,,,,,,,,,,,,,,,,,,,,,501.4565633998718,502.4112873999402,None,0,501.4565633998718,502.4112873999402,502.405777500011,None,,,,,,,,,TestSD,001,1,UA,2022_Feb_17_1029,task_complete_blocked_LC_updated,2021.2.3,243.37413937475011,
,,,O,2,,,,,,,,,26,0,52,1,,,,,,,,,,,,,,,,,,,,,,,,,,,,,,,,,,,,,,,,,,,,,,,,,,,,,,,,,,,,,,,,,,,,,,,,,,,,,,502.45445630000904,503.4039320999291,None,0,502.45445630000904,503.4039320999291,503.4005918998737,None,,,,,,,,,TestSD,001,1,UA,2022_Feb_17_1029,task_complete_blocked_LC_updated,2021.2.3,243.37413937475011,
,,,X,1,,,,,,,,,26,1,53,0,,,,,,,,,,,,,,,,,,,,,,,,,,,,,,,,,,,,,,,,,,,,,,,,,,,,,,,,,,,,,,,,,,,,,,,,,,,,,,503.4545050000306,504.41066859988496,None,0,503.4545050000306,504.41066859988496,504.41066859988496,None,,,,,,,,,TestSD,001,1,UA,2022_Feb_17_1029,task_complete_blocked_LC_updated,2021.2.3,243.37413937475011,
,,,O,2,,,,,,,,,27,0,54,1,,,,,,,,,,,,,,,,,,,,,,,,,,,,,,,,,,,,,,,,,,,,,,,,,,,,,,,,,,,,,,,,,,,,,,,,,,,,,,504.4557145999279,505.40719579998404,None,0,504.4557145999279,505.40719579998404,505.40266799996607,None,,,,,,,,,TestSD,001,1,UA,2022_Feb_17_1029,task_complete_blocked_LC_updated,2021.2.3,243.37413937475011,
,,,X,1,,,,,,,,,27,1,55,0,,,,,,,,,,,,,,,,,,,,,,,,,,,,,,,,,,,,,,,,,,,,,,,,,,,,,,,,,,,,,,,,,,,,,,,,,,,,,,505.4556915999856,506.4079440999776,None,0,505.4556915999856,506.4079440999776,506.40274280007,None,,,,,,,,,TestSD,001,1,UA,2022_Feb_17_1029,task_complete_blocked_LC_updated,2021.2.3,243.37413937475011,
,,,X,1,,,,,,,,,28,0,56,0,,,,,,,,,,,,,,,,,,,,,,,,,,,,,,,,,,,,,,,,,,,,,,,,,,,,,,,,,,,,,,,,,,,,,,,,,,,,,,506.4545002998784,507.4121443000622,None,0,506.4545002998784,507.4121443000622,507.4019508000929,None,,,,,,,,,TestSD,001,1,UA,2022_Feb_17_1029,task_complete_blocked_LC_updated,2021.2.3,243.37413937475011,
,,,O,2,,,,,,,,,28,1,57,1,,,,,,,,,,,,,,,,,,,,,,,,,,,,,,,,,,,,,,,,,,,,,,,,,,,,,,,,,,,,,,,,,,,,,,,,,,,,,,507.45440499996766,508.4040067999158,None,0,507.45440499996766,508.4040067999158,508.4007057000417,None,,,,,,,,,TestSD,001,1,UA,2022_Feb_17_1029,task_complete_blocked_LC_updated,2021.2.3,243.37413937475011,
,,,O,2,,,,,,,,,29,0,58,1,,,,,,,,,,,,,,,,,,,,,,,,,,,,,,,,,,,,,,,,,,,,,,,,,,,,,,,,,,,,,,,,,,,,,,,,,,,,,,508.45258829998784,509.406287800055,None,0,508.45258829998784,509.406287800055,509.40224820002913,508.45258829998784,,,,,,,,,TestSD,001,1,UA,2022_Feb_17_1029,task_complete_blocked_LC_updated,2021.2.3,243.37413937475011,
,,,X,1,,,,,,,,,29,1,59,0,,,,,,,,,,,,,,,,,,,,,,,,,,,,,,,,,,,,,,,,,,,,,,,,,,,,,,,,,,,,,,,,,,,,,,,,,,,,,,509.45628500008024,510.4080689998809,None,0,509.45628500008024,510.4080689998809,510.40495570003986,None,,,,,,,,,TestSD,001,1,UA,2022_Feb_17_1029,task_complete_blocked_LC_updated,2021.2.3,243.37413937475011,
,,,,,,,,,,,,,,,,,,,,,,,,,,,,,,,,,,,,,,,,,,,,,,,,,,,,,,,,,,,,,,,,,,,,,,,,,,,,,,,,,,,,,,,,,,,,,,,,,,,,,,510.4533839998767,None,space,30.71743299998343,515.455209699925,None,,,TestSD,001,1,UA,2022_Feb_17_1029,task_complete_blocked_LC_updated,2021.2.3,243.37413937475011,
,,,,,,,,,,,,,,,,,,,,,,,,,,,,,,,,,,,,,,,,,,,,,,,,,,,,,,,,,,,,,,,,,546.1850509999786,None,5,1.5274878998752683,546.1850509999786,None,,,,,,,,,,,,,,,,,,,,,,,,,,,,,,,,,,,,,,515.455209699925,None,TestSD,001,1,UA,2022_Feb_17_1029,task_complete_blocked_LC_updated,2021.2.3,243.37413937475011,
stimulus_images/ABALLYAR4.jpg,TIME,0,,,,,,,,,,,,,,,0,0,0,1,,,,,,,,,,,,,,,,,,,,,,,,,,,,,,,,,,,,,,,,,,,,,,,,,,,2.700136974453926e-06,547.7472691000439,549.7469271998852,547.7472691000439,549.7469271998852,548.744451199891,549.7440871999133,548.744451199891,549.7440871999133,549.7440871999133,None,5.982314300024882,553.7247554000933,None,553.7247554000933,None,None,553.7247554000933,None,559.7248466999736,None,,,,,,,,,,,,,,,,,,,TestSD,001,1,UA,2022_Feb_17_1029,task_complete_blocked_LC_updated,2021.2.3,243.37413937475011,
stimulus_images/Aeasteregg14.jpg,TIME,0,,,,,,,,,,,,,,,0,1,1,6,,,,,,,,,,,,,,,,,,,,,,,,,,,,,,,,,,,,,,,,,,,,,,,,,,,13.985975000075996,561.7317311998922,563.7364640999585,561.7317311998922,563.7364640999585,562.7307299000677,563.7364640999585,562.7307299000677,563.7364640999585,563.7308227000758,None,19.989867500029504,567.7333225000184,None,567.7333225000184,None,None,567.7333225000184,None,573.730842199875,None,,,,,,,,,,,,,,,,,,,TestSD,001,1,UA,2022_Feb_17_1029,task_complete_blocked_LC_updated,2021.2.3,243.37413937475011,
stimulus_images/Agiftbag20.jpg,TIME,1,,,,,,,,,,,,,,,0,2,2,7,,,,,,,,,,,,,,,,,,,,,,,,,,,,,,,,,,,,,,,,,,,,,,,,,,,28.992633800022304,576.7449362000916,578.7483695999254,576.7449362000916,578.7483695999254,577.7405834000092,578.7446506000124,577.7405834000092,578.7446506000124,578.7398576999549,None,34.99483030010015,582.7373885000125,None,582.7373885000125,None,None,582.7373885000125,None,588.7370931999758,None,,,,,,,,,,,,,,,,,,,TestSD,001,1,UA,2022_Feb_17_1029,task_complete_blocked_LC_updated,2021.2.3,243.37413937475011,
stimulus_images/AOTOSCOP5.jpg,TIME,0,,,,,,,,,,,,,,,0,3,3,9,,,,,,,,,,,,,,,,,,,,,,,,,,,,,,,,,,,,,,,,,,,,,,,,,,,42.99825770012103,590.7427997998893,592.7450697999448,590.7427997998893,592.7450697999448,591.7374217000324,592.7404157998972,591.7374217000324,592.7404157998972,592.7404157998972,None,48.998653599992394,596.7410110000055,None,596.7410110000055,None,None,596.7410110000055,None,602.7456000000238,None,,,,,,,,,,,,,,,,,,,TestSD,001,1,UA,2022_Feb_17_1029,task_complete_blocked_LC_updated,2021.2.3,243.37413937475011,
stimulus_images/Aboxofchocola.jpg,TIME,0,,,,,,,,,,,,,,,0,4,4,3,,,,,,,,,,,,,,,,,,,,,,,,,,,,,,,,,,,,,,,,,,,,,,,,,,,58.00511780008674,605.7523058000952,607.7558412000071,605.7523058000952,607.7558412000071,606.7476725999732,607.7511950000189,606.7476725999732,607.7511950000189,607.7511950000189,None,64.00738670001738,611.7502890999895,None,611.7502890999895,None,None,611.7502890999895,None,617.7496903999709,None,,,,,,,,,,,,,,,,,,,TestSD,001,1,UA,2022_Feb_17_1029,task_complete_blocked_LC_updated,2021.2.3,243.37413937475011,
stimulus_images/ACAROSLI2.jpg,TIME,0,,,,,,,,,,,,,,,0,5,5,4,,,,,,,,,,,,,,,,,,,,,,,,,,,,,,,,,,,,,,,,,,,,,,,,,,,71.01111970003694,618.7565263998695,620.7580025000498,618.7565263998695,620.7580025000498,619.7521635999437,620.7536508000921,619.7521635999437,620.7536508000921,620.7536508000921,None,77.01368320011534,624.7573454999365,None,624.7573454999365,None,None,624.7573454999365,None,630.7560205999762,None,,,,,,,,,,,,,,,,,,,TestSD,001,1,UA,2022_Feb_17_1029,task_complete_blocked_LC_updated,2021.2.3,243.37413937475011,
stimulus_images/Acomputerdriv.jpg,TIME,0,,,,,,,,,,,,,,,0,6,6,5,,,,,,,,,,,,,,,,,,,,,,,,,,,,,,,,,,,,,,,,,,,,,,,,,,,85.01515300013125,632.7666952,634.7708278000355,632.7666952,634.7708278000355,633.7647359999828,634.7654752000235,633.7647359999828,634.7654752000235,634.7654752000235,None,91.01808620011434,638.7608679998666,None,638.7608679998666,None,None,638.7608679998666,None,644.7626984000672,None,,,,,,,,,,,,,,,,,,,TestSD,001,1,UA,2022_Feb_17_1029,task_complete_blocked_LC_updated,2021.2.3,243.37413937475011,
stimulus_images/AARMCHA25.jpg,TIME,0,,,,,,,,,,,,,,,0,7,7,0,,,,,,,,,,,,,,,,,,,,,,,,,,,,,,,,,,,,,,,,,,,,,,,,,,,99.02371340012178,646.7686675000004,648.7752779999282,646.7686675000004,648.7752779999282,647.7634058999829,648.7633281999733,647.7634058999829,648.7633281999733,648.7633281999733,None,105.02408220013604,652.7666022998746,None,652.7666022998746,None,None,652.7666022998746,None,658.7683441999834,None,,,,,,,,,,,,,,,,,,,TestSD,001,1,UA,2022_Feb_17_1029,task_complete_blocked_LC_updated,2021.2.3,243.37413937475011,
stimulus_images/ABILLTABL.jpg,TIME,1,,,,,,,,,,,,,,,0,8,8,2,,,,,,,,,,,,,,,,,,,,,,,,,,,,,,,,,,,,,,,,,,,,,,,,,,,112.02773380000144,659.7778024000581,661.7829610998742,659.7778024000581,661.7829610998742,660.7773255000357,661.7829610998742,660.7773255000357,661.7829610998742,661.7776540000923,None,118.03031609999016,665.7732231998816,None,665.7732231998816,None,None,665.7732231998816,None,671.7826018999331,None,,,,,,,,,,,,,,,,,,,TestSD,001,1,UA,2022_Feb_17_1029,task_complete_blocked_LC_updated,2021.2.3,243.37413937475011,
stimulus_images/AICESKAT8.jpg,TIME,0,,,,,,,,,,,,,,,0,9,9,8,,,,,,,,,,,,,,,,,,,,,,,,,,,,,,,,,,,,,,,,,,,,,,,,,,,126.04442879999988,673.7884239000268,675.7903968000319,673.7884239000268,675.7903968000319,674.7854385999963,675.7871435000561,674.7854385999963,675.7871435000561,675.7833237999585,None,132.04465489997528,679.7869426000398,None,679.7869426000398,None,None,679.7869426000398,None,685.7921279000584,None,,,,,,,,,,,,,,,,,,,TestSD,001,1,UA,2022_Feb_17_1029,task_complete_blocked_LC_updated,2021.2.3,243.37413937475011,
stimulus_images/Aantiquerota7.jpg,TIME,0,,,,,,,,,,,,,,,,,,,0,0,0,6,,,,,,,,,,,,,,,,,,,,,,,,,,,,,,,,,,,,,,,,,,,,,,,141.05677440017462,688.8020152000245,690.8034377999138,688.8020152000245,690.8034377999138,689.7985068999697,690.8001995999366,689.7985068999697,690.8001995999366,690.8001995999366,None,147.05569820012897,694.7984827000182,None,694.7984827000182,None,None,694.7984827000182,None,700.8002056998666,None,,,,,,,,,,,,,,,,,,,TestSD,001,1,UA,2022_Feb_17_1029,task_complete_blocked_LC_updated,2021.2.3,243.37413937475011,
stimulus_images/Aroadsignin15.jpg,TIME,1,,,,,,,,,,,,,,,,,,,0,1,1,0,,,,,,,,,,,,,,,,,,,,,,,,,,,,,,,,,,,,,,,,,,,,,,,154.0616454000119,701.8133008999284,703.819532699883,701.8133008999284,703.819532699883,702.810860699974,703.8125257000793,702.810860699974,703.8125257000793,703.8125257000793,None,160.0640591001138,707.8061996998731,None,707.8061996998731,None,None,707.8061996998731,None,713.8100473999511,None,,,,,,,,,,,,,,,,,,,TestSD,001,1,UA,2022_Feb_17_1029,task_complete_blocked_LC_updated,2021.2.3,243.37413937475011,
stimulus_images/Abackpack11.jpg,TIME,1,,,,,,,,,,,,,,,,,,,0,2,2,7,,,,,,,,,,,,,,,,,,,,,,,,,,,,,,,,,,,,,,,,,,,,,,,168.06963250017725,715.8208753000945,717.8197659999132,715.8208753000945,717.8197659999132,716.8186359000392,717.8197659999132,716.8186359000392,717.8197659999132,717.8163372999988,None,174.07280870014802,721.8162467998918,None,721.8162467998918,None,None,721.8162467998918,None,727.8127649999224,None,,,,,,,,,,,,,,,,,,,TestSD,001,1,UA,2022_Feb_17_1029,task_complete_blocked_LC_updated,2021.2.3,243.37413937475011,
stimulus_images/wetsuit1.jpg,TIME,0,,,,,,,,,,,,,,,,,,,0,3,3,3,,,,,,,,,,,,,,,,,,,,,,,,,,,,,,,,,,,,,,,,,,,,,,,181.073678500019,728.8188094000798,730.8185443999246,728.8188094000798,730.8185443999246,729.816194999963,730.8185443999246,729.816194999963,730.8185443999246,730.8153267998714,None,187.07469779998064,734.8165766000748,None,734.8165766000748,None,None,734.8165766000748,None,740.8224243998993,None,,,,,,,,,,,,,,,,,,,TestSD,001,1,UA,2022_Feb_17_1029,task_complete_blocked_LC_updated,2021.2.3,243.37413937475011,
stimulus_images/Atelescope2.jpg,TIME,1,,,,,,,,,,,,,,,,,,,0,4,4,1,,,,,,,,,,,,,,,,,,,,,,,,,,,,,,,,,,,,,,,,,,,,,,,194.0823741001077,741.8281878000125,743.8303358000703,741.8281878000125,743.8303358000703,742.8227478999179,743.8268973000813,742.8227478999179,743.8268973000813,743.8230264000595,None,200.08321980014443,747.8254625999834,None,747.8254625999834,None,None,747.8254625999834,None,753.8287535000127,None,,,,,,,,,,,,,,,,,,,TestSD,001,1,UA,2022_Feb_17_1029,task_complete_blocked_LC_updated,2021.2.3,243.37413937475011,
stimulus_images/Abasketofbrea.jpg,TIME,0,,,,,,,,,,,,,,,,,,,0,5,5,8,,,,,,,,,,,,,,,,,,,,,,,,,,,,,,,,,,,,,,,,,,,,,,,207.0912184000481,754.8436670999508,756.8464210999664,754.8436670999508,756.8464210999664,755.8369781000074,756.8421980000567,755.8369781000074,756.8421980000567,756.8421980000567,None,213.09557420015335,760.8381272000261,None,760.8381272000261,None,None,760.8381272000261,None,766.8379309999291,None,,,,,,,,,,,,,,,,,,,TestSD,001,1,UA,2022_Feb_17_1029,task_complete_blocked_LC_updated,2021.2.3,243.37413937475011,
stimulus_images/corkscrew02.jpg,TIME,0,,,,,,,,,,,,,,,,,,,0,6,6,2,,,,,,,,,,,,,,,,,,,,,,,,,,,,,,,,,,,,,,,,,,,,,,,222.09747659997083,769.8430138998665,771.8460502000526,769.8430138998665,771.8460502000526,770.8406656999141,771.8460502000526,770.8406656999141,771.8460502000526,771.8424104999285,None,228.09824259998277,775.8410696999636,None,775.8410696999636,None,None,775.8410696999636,None,781.8411292000674,None,,,,,,,,,,,,,,,,,,,TestSD,001,1,UA,2022_Feb_17_1029,task_complete_blocked_LC_updated,2021.2.3,243.37413937475011,
stimulus_images/AALTIRE2.jpg,TIME,0,,,,,,,,,,,,,,,,,,,0,7,7,5,,,,,,,,,,,,,,,,,,,,,,,,,,,,,,,,,,,,,,,,,,,,,,,237.1029030000791,784.8614010999445,786.8668796999846,784.8614010999445,786.8668796999846,785.8580871000886,786.8668796999846,785.8580871000886,786.8668796999846,786.8592530998867,None,243.10423399996944,790.846556100063,None,790.846556100063,None,None,790.846556100063,None,796.8509380000178,None,,,,,,,,,,,,,,,,,,,TestSD,001,1,UA,2022_Feb_17_1029,task_complete_blocked_LC_updated,2021.2.3,243.37413937475011,
stimulus_images/A25thdec3.jpg,TIME,0,,,,,,,,,,,,,,,,,,,0,8,8,4,,,,,,,,,,,,,,,,,,,,,,,,,,,,,,,,,,,,,,,,,,,,,,,251.111983000068,798.8645180999301,800.8644922999665,798.8645180999301,800.8644922999665,799.8606551999692,800.8644922999665,799.8606551999692,800.8644922999665,800.8604576000944,None,257.1147704999894,804.8615635000169,None,804.8615635000169,None,None,804.8615635000169,None,810.8636743000243,None,,,,,,,,,,,,,,,,,,,TestSD,001,1,UA,2022_Feb_17_1029,task_complete_blocked_LC_updated,2021.2.3,243.37413937475011,
stimulus_images/Aboots56.jpg,TIME,0,,,,,,,,,,,,,,,,,,,0,9,9,9,,,,,,,,,,,,,,,,,,,,,,,,,,,,,,,,,,,,,,,,,,,,,,,266.1221202001907,813.8677163999528,815.8725926000625,813.8677163999528,815.8725926000625,814.8621567999944,815.866527599981,814.8621567999944,815.866527599981,815.866527599981,None,272.12513780011795,819.867370299995,None,819.867370299995,None,None,819.867370299995,None,825.8686156000476,None,,,,,,,,,,,,,,,,,,,TestSD,001,1,UA,2022_Feb_17_1029,task_complete_blocked_LC_updated,2021.2.3,243.37413937475011,
,,,O,2,,,,,,,,,,,,,,,,,,,,,0,0,0,1,,,,,,,,,,,,,,,,,,,,,,,,,,,,,,,,,,,,,,,,,,,,,,,,,,,,,,,,,,,,,,,,827.8729765999597,None,830.8856702998746,831.8387817000039,None,0,830.8856702998746,831.8387817000039,831.8339036998805,None,,,,,,,,,TestSD,001,1,UA,2022_Feb_17_1029,task_complete_blocked_LC_updated,2021.2.3,243.37413937475011,
,,,X,1,,,,,,,,,,,,,,,,,,,,,0,1,1,0,,,,,,,,,,,,,,,,,,,,,,,,,,,,,,,,,,,,,,,,,,,,,,,,,,,,,,,,,,,,,,,,,,831.8784014999401,832.8314787999261,None,0,831.8784014999401,832.8314787999261,832.8283083999995,None,,,,,,,,,TestSD,001,1,UA,2022_Feb_17_1029,task_complete_blocked_LC_updated,2021.2.3,243.37413937475011,
,,,O,2,,,,,,,,,,,,,,,,,,,,,1,0,2,1,,,,,,,,,,,,,,,,,,,,,,,,,,,,,,,,,,,,,,,,,,,,,,,,,,,,,,,,,,,,,,,,,,832.8775728999171,833.8345641000196,None,0,832.8775728999171,833.8345641000196,833.8250059999991,None,,,,,,,,,TestSD,001,1,UA,2022_Feb_17_1029,task_complete_blocked_LC_updated,2021.2.3,243.37413937475011,
,,,X,1,,,,,,,,,,,,,,,,,,,,,1,1,3,0,,,,,,,,,,,,,,,,,,,,,,,,,,,,,,,,,,,,,,,,,,,,,,,,,,,,,,,,,,,,,,,,,,833.8786995999981,834.8318288999144,None,0,833.8786995999981,834.8318288999144,834.8278648999985,None,,,,,,,,,TestSD,001,1,UA,2022_Feb_17_1029,task_complete_blocked_LC_updated,2021.2.3,243.37413937475011,
,,,X,1,,,,,,,,,,,,,,,,,,,,,2,0,4,0,,,,,,,,,,,,,,,,,,,,,,,,,,,,,,,,,,,,,,,,,,,,,,,,,,,,,,,,,,,,,,,,,,834.8775688998867,835.8265998999123,None,0,834.8775688998867,835.8265998999123,835.8228048998863,None,,,,,,,,,TestSD,001,1,UA,2022_Feb_17_1029,task_complete_blocked_LC_updated,2021.2.3,243.37413937475011,
,,,O,2,,,,,,,,,,,,,,,,,,,,,2,1,5,1,,,,,,,,,,,,,,,,,,,,,,,,,,,,,,,,,,,,,,,,,,,,,,,,,,,,,,,,,,,,,,,,,,835.8763709000777,836.8309921999462,None,0,835.8763709000777,836.8309921999462,836.8202797998674,835.8763709000777,,,,,,,,,TestSD,001,1,UA,2022_Feb_17_1029,task_complete_blocked_LC_updated,2021.2.3,243.37413937475011,
,,,O,2,,,,,,,,,,,,,,,,,,,,,3,0,6,1,,,,,,,,,,,,,,,,,,,,,,,,,,,,,,,,,,,,,,,,,,,,,,,,,,,,,,,,,,,,,,,,,,836.8743797999341,837.8303449999075,None,0,836.8743797999341,837.8303449999075,837.8272907999344,836.8743797999341,,,,,,,,,TestSD,001,1,UA,2022_Feb_17_1029,task_complete_blocked_LC_updated,2021.2.3,243.37413937475011,
,,,X,1,,,,,,,,,,,,,,,,,,,,,3,1,7,0,,,,,,,,,,,,,,,,,,,,,,,,,,,,,,,,,,,,,,,,,,,,,,,,,,,,,,,,,,,,,,,,,,837.8786955000833,838.8318704999983,None,0,837.8786955000833,838.8318704999983,838.828628399875,None,,,,,,,,,TestSD,001,1,UA,2022_Feb_17_1029,task_complete_blocked_LC_updated,2021.2.3,243.37413937475011,
,,,X,1,,,,,,,,,,,,,,,,,,,,,4,0,8,0,,,,,,,,,,,,,,,,,,,,,,,,,,,,,,,,,,,,,,,,,,,,,,,,,,,,,,,,,,,,,,,,,,838.8766799999867,839.8262102000881,None,0,838.8766799999867,839.8262102000881,839.822377000004,None,,,,,,,,,TestSD,001,1,UA,2022_Feb_17_1029,task_complete_blocked_LC_updated,2021.2.3,243.37413937475011,
,,,O,2,,,,,,,,,,,,,,,,,,,,,4,1,9,1,,,,,,,,,,,,,,,,,,,,,,,,,,,,,,,,,,,,,,,,,,,,,,,,,,,,,,,,,,,,,,,,,,839.8755453000776,840.8263328000903,None,0,839.8755453000776,840.8263328000903,840.8263328000903,839.8755453000776,,,,,,,,,TestSD,001,1,UA,2022_Feb_17_1029,task_complete_blocked_LC_updated,2021.2.3,243.37413937475011,
,,,X,1,,,,,,,,,,,,,,,,,,,,,5,0,10,0,,,,,,,,,,,,,,,,,,,,,,,,,,,,,,,,,,,,,,,,,,,,,,,,,,,,,,,,,,,,,,,,,,840.8774975000415,841.8292547999881,None,0,840.8774975000415,841.8292547999881,841.8253981000744,None,,,,,,,,,TestSD,001,1,UA,2022_Feb_17_1029,task_complete_blocked_LC_updated,2021.2.3,243.37413937475011,
,,,O,2,,,,,,,,,,,,,,,,,,,,,5,1,11,1,,,,,,,,,,,,,,,,,,,,,,,,,,,,,,,,,,,,,,,,,,,,,,,,,,,,,,,,,,,,,,,,,,841.8833001998719,842.8380414000712,None,0,841.8833001998719,842.8380414000712,842.8283998998813,None,,,,,,,,,TestSD,001,1,UA,2022_Feb_17_1029,task_complete_blocked_LC_updated,2021.2.3,243.37413937475011,
,,,X,1,,,,,,,,,,,,,,,,,,,,,6,0,12,0,,,,,,,,,,,,,,,,,,,,,,,,,,,,,,,,,,,,,,,,,,,,,,,,,,,,,,,,,,,,,,,,,,842.874524399871,843.8267441999633,None,0,842.874524399871,843.8267441999633,843.8213734999299,None,,,,,,,,,TestSD,001,1,UA,2022_Feb_17_1029,task_complete_blocked_LC_updated,2021.2.3,243.37413937475011,
,,,O,2,,,,,,,,,,,,,,,,,,,,,6,1,13,1,,,,,,,,,,,,,,,,,,,,,,,,,,,,,,,,,,,,,,,,,,,,,,,,,,,,,,,,,,,,,,,,,,843.8768173998687,844.8317837999202,None,0,843.8768173998687,844.8317837999202,844.8317837999202,None,,,,,,,,,TestSD,001,1,UA,2022_Feb_17_1029,task_complete_blocked_LC_updated,2021.2.3,243.37413937475011,
,,,X,1,,,,,,,,,,,,,,,,,,,,,7,0,14,0,,,,,,,,,,,,,,,,,,,,,,,,,,,,,,,,,,,,,,,,,,,,,,,,,,,,,,,,,,,,,,,,,,844.8784843999892,845.8350446999539,None,0,844.8784843999892,845.8350446999539,845.8235798999667,None,,,,,,,,,TestSD,001,1,UA,2022_Feb_17_1029,task_complete_blocked_LC_updated,2021.2.3,243.37413937475011,
,,,O,2,,,,,,,,,,,,,,,,,,,,,7,1,15,1,,,,,,,,,,,,,,,,,,,,,,,,,,,,,,,,,,,,,,,,,,,,,,,,,,,,,,,,,,,,,,,,,,845.8784672999755,846.8303412999958,None,0,845.8784672999755,846.8303412999958,846.8244507000782,None,,,,,,,,,TestSD,001,1,UA,2022_Feb_17_1029,task_complete_blocked_LC_updated,2021.2.3,243.37413937475011,
,,,X,1,,,,,,,,,,,,,,,,,,,,,8,0,16,0,,,,,,,,,,,,,,,,,,,,,,,,,,,,,,,,,,,,,,,,,,,,,,,,,,,,,,,,,,,,,,,,,,846.8792190998793,847.8350953999907,None,0,846.8792190998793,847.8350953999907,847.8297751999926,None,,,,,,,,,TestSD,001,1,UA,2022_Feb_17_1029,task_complete_blocked_LC_updated,2021.2.3,243.37413937475011,
,,,O,2,,,,,,,,,,,,,,,,,,,,,8,1,17,1,,,,,,,,,,,,,,,,,,,,,,,,,,,,,,,,,,,,,,,,,,,,,,,,,,,,,,,,,,,,,,,,,,847.8789677000605,848.8350778000895,None,0,847.8789677000605,848.8350778000895,848.8288094000891,None,,,,,,,,,TestSD,001,1,UA,2022_Feb_17_1029,task_complete_blocked_LC_updated,2021.2.3,243.37413937475011,
,,,X,1,,,,,,,,,,,,,,,,,,,,,9,0,18,0,,,,,,,,,,,,,,,,,,,,,,,,,,,,,,,,,,,,,,,,,,,,,,,,,,,,,,,,,,,,,,,,,,848.8776117998641,849.8309076000005,None,0,848.8776117998641,849.8309076000005,849.8275649000425,None,,,,,,,,,TestSD,001,1,UA,2022_Feb_17_1029,task_complete_blocked_LC_updated,2021.2.3,243.37413937475011,
,,,O,2,,,,,,,,,,,,,,,,,,,,,9,1,19,1,,,,,,,,,,,,,,,,,,,,,,,,,,,,,,,,,,,,,,,,,,,,,,,,,,,,,,,,,,,,,,,,,,849.8775951000862,850.8300528000109,None,0,849.8775951000862,850.8300528000109,850.8245397000574,None,,,,,,,,,TestSD,001,1,UA,2022_Feb_17_1029,task_complete_blocked_LC_updated,2021.2.3,243.37413937475011,
,,,O,2,,,,,,,,,,,,,,,,,,,,,10,0,20,1,,,,,,,,,,,,,,,,,,,,,,,,,,,,,,,,,,,,,,,,,,,,,,,,,,,,,,,,,,,,,,,,,,850.8771688998677,851.8300197999924,None,0,850.8771688998677,851.8300197999924,851.8300197999924,None,,,,,,,,,TestSD,001,1,UA,2022_Feb_17_1029,task_complete_blocked_LC_updated,2021.2.3,243.37413937475011,
,,,X,1,,,,,,,,,,,,,,,,,,,,,10,1,21,0,,,,,,,,,,,,,,,,,,,,,,,,,,,,,,,,,,,,,,,,,,,,,,,,,,,,,,,,,,,,,,,,,,851.8771488999482,852.830549400067,None,0,851.8771488999482,852.830549400067,852.8254637999926,None,,,,,,,,,TestSD,001,1,UA,2022_Feb_17_1029,task_complete_blocked_LC_updated,2021.2.3,243.37413937475011,
,,,O,2,,,,,,,,,,,,,,,,,,,,,11,0,22,1,,,,,,,,,,,,,,,,,,,,,,,,,,,,,,,,,,,,,,,,,,,,,,,,,,,,,,,,,,,,,,,,,,852.8834911000449,853.8333870000206,None,0,852.8834911000449,853.8333870000206,853.8299702000804,None,,,,,,,,,TestSD,001,1,UA,2022_Feb_17_1029,task_complete_blocked_LC_updated,2021.2.3,243.37413937475011,
,,,X,1,,,,,,,,,,,,,,,,,,,,,11,1,23,0,,,,,,,,,,,,,,,,,,,,,,,,,,,,,,,,,,,,,,,,,,,,,,,,,,,,,,,,,,,,,,,,,,853.8792667998932,854.8311304999515,None,0,853.8792667998932,854.8311304999515,854.8275546999648,None,,,,,,,,,TestSD,001,1,UA,2022_Feb_17_1029,task_complete_blocked_LC_updated,2021.2.3,243.37413937475011,
,,,O,2,,,,,,,,,,,,,,,,,,,,,12,0,24,1,,,,,,,,,,,,,,,,,,,,,,,,,,,,,,,,,,,,,,,,,,,,,,,,,,,,,,,,,,,,,,,,,,854.8779082999099,855.8308303998783,None,0,854.8779082999099,855.8308303998783,855.8246883000247,None,,,,,,,,,TestSD,001,1,UA,2022_Feb_17_1029,task_complete_blocked_LC_updated,2021.2.3,243.37413937475011,
,,,X,1,,,,,,,,,,,,,,,,,,,,,12,1,25,0,,,,,,,,,,,,,,,,,,,,,,,,,,,,,,,,,,,,,,,,,,,,,,,,,,,,,,,,,,,,,,,,,,855.8788616000675,856.8276174999774,None,0,855.8788616000675,856.8276174999774,856.8240622000303,None,,,,,,,,,TestSD,001,1,UA,2022_Feb_17_1029,task_complete_blocked_LC_updated,2021.2.3,243.37413937475011,
,,,O,2,,,,,,,,,,,,,,,,,,,,,13,0,26,1,,,,,,,,,,,,,,,,,,,,,,,,,,,,,,,,,,,,,,,,,,,,,,,,,,,,,,,,,,,,,,,,,,856.8827336998656,857.8345119000878,None,0,856.8827336998656,857.8345119000878,857.8289383000229,None,,,,,,,,,TestSD,001,1,UA,2022_Feb_17_1029,task_complete_blocked_LC_updated,2021.2.3,243.37413937475011,
,,,X,1,,,,,,,,,,,,,,,,,,,,,13,1,27,0,,,,,,,,,,,,,,,,,,,,,,,,,,,,,,,,,,,,,,,,,,,,,,,,,,,,,,,,,,,,,,,,,,857.8786923999432,858.8309537998866,None,0,857.8786923999432,858.8309537998866,858.8268675999716,None,,,,,,,,,TestSD,001,1,UA,2022_Feb_17_1029,task_complete_blocked_LC_updated,2021.2.3,243.37413937475011,
,,,X,1,,,,,,,,,,,,,,,,,,,,,14,0,28,0,,,,,,,,,,,,,,,,,,,,,,,,,,,,,,,,,,,,,,,,,,,,,,,,,,,,,,,,,,,,,,,,,,858.8776082999539,859.8273314998951,None,0,858.8776082999539,859.8273314998951,859.8238136998843,None,,,,,,,,,TestSD,001,1,UA,2022_Feb_17_1029,task_complete_blocked_LC_updated,2021.2.3,243.37413937475011,
,,,O,2,,,,,,,,,,,,,,,,,,,,,14,1,29,1,,,,,,,,,,,,,,,,,,,,,,,,,,,,,,,,,,,,,,,,,,,,,,,,,,,,,,,,,,,,,,,,,,859.8787247000728,860.8306938998867,None,0,859.8787247000728,860.8306938998867,860.825743699912,None,,,,,,,,,TestSD,001,1,UA,2022_Feb_17_1029,task_complete_blocked_LC_updated,2021.2.3,243.37413937475011,
,,,X,1,,,,,,,,,,,,,,,,,,,,,15,0,30,0,,,,,,,,,,,,,,,,,,,,,,,,,,,,,,,,,,,,,,,,,,,,,,,,,,,,,,,,,,,,,,,,,,860.8789142998867,861.8312417999841,None,0,860.8789142998867,861.8312417999841,861.8258309999947,None,,,,,,,,,TestSD,001,1,UA,2022_Feb_17_1029,task_complete_blocked_LC_updated,2021.2.3,243.37413937475011,
,,,O,2,,,,,,,,,,,,,,,,,,,,,15,1,31,1,,,,,,,,,,,,,,,,,,,,,,,,,,,,,,,,,,,,,,,,,,,,,,,,,,,,,,,,,,,,,,,,,,861.8772420000751,862.8301730998792,None,0,861.8772420000751,862.8301730998792,862.824430000037,None,,,,,,,,,TestSD,001,1,UA,2022_Feb_17_1029,task_complete_blocked_LC_updated,2021.2.3,243.37413937475011,
,,,O,2,,,,,,,,,,,,,,,,,,,,,16,0,32,1,,,,,,,,,,,,,,,,,,,,,,,,,,,,,,,,,,,,,,,,,,,,,,,,,,,,,,,,,,,,,,,,,,862.8772648999002,863.8268305999227,None,0,862.8772648999002,863.8268305999227,863.8226206998806,None,,,,,,,,,TestSD,001,1,UA,2022_Feb_17_1029,task_complete_blocked_LC_updated,2021.2.3,243.37413937475011,
,,,X,1,,,,,,,,,,,,,,,,,,,,,16,1,33,0,,,,,,,,,,,,,,,,,,,,,,,,,,,,,,,,,,,,,,,,,,,,,,,,,,,,,,,,,,,,,,,,,,863.8750624998938,864.8305742999073,None,0,863.8750624998938,864.8305742999073,864.824678099947,863.8750624998938,,,,,,,,,TestSD,001,1,UA,2022_Feb_17_1029,task_complete_blocked_LC_updated,2021.2.3,243.37413937475011,
,,,O,2,,,,,,,,,,,,,,,,,,,,,17,0,34,1,,,,,,,,,,,,,,,,,,,,,,,,,,,,,,,,,,,,,,,,,,,,,,,,,,,,,,,,,,,,,,,,,,864.8777660999913,865.831056999974,None,0,864.8777660999913,865.831056999974,865.826407100074,None,,,,,,,,,TestSD,001,1,UA,2022_Feb_17_1029,task_complete_blocked_LC_updated,2021.2.3,243.37413937475011,
,,,X,1,,,,,,,,,,,,,,,,,,,,,17,1,35,0,,,,,,,,,,,,,,,,,,,,,,,,,,,,,,,,,,,,,,,,,,,,,,,,,,,,,,,,,,,,,,,,,,865.8785387999378,866.8272112999111,None,0,865.8785387999378,866.8272112999111,866.8239334998652,None,,,,,,,,,TestSD,001,1,UA,2022_Feb_17_1029,task_complete_blocked_LC_updated,2021.2.3,243.37413937475011,
,,,O,2,,,,,,,,,,,,,,,,,,,,,18,0,36,1,,,,,,,,,,,,,,,,,,,,,,,,,,,,,,,,,,,,,,,,,,,,,,,,,,,,,,,,,,,,,,,,,,866.8752824000549,867.8282649000175,None,0,866.8752824000549,867.8282649000175,867.8245498000178,None,,,,,,,,,TestSD,001,1,UA,2022_Feb_17_1029,task_complete_blocked_LC_updated,2021.2.3,243.37413937475011,
,,,X,1,,,,,,,,,,,,,,,,,,,,,18,1,37,0,,,,,,,,,,,,,,,,,,,,,,,,,,,,,,,,,,,,,,,,,,,,,,,,,,,,,,,,,,,,,,,,,,867.8755981998984,868.8269767998718,None,0,867.8755981998984,868.8269767998718,868.8269767998718,None,,,,,,,,,TestSD,001,1,UA,2022_Feb_17_1029,task_complete_blocked_LC_updated,2021.2.3,243.37413937475011,
,,,X,1,,,,,,,,,,,,,,,,,,,,,19,0,38,0,,,,,,,,,,,,,,,,,,,,,,,,,,,,,,,,,,,,,,,,,,,,,,,,,,,,,,,,,,,,,,,,,,868.8768126999494,869.8309279000387,None,0,868.8768126999494,869.8309279000387,869.8245814000256,None,,,,,,,,,TestSD,001,1,UA,2022_Feb_17_1029,task_complete_blocked_LC_updated,2021.2.3,243.37413937475011,
,,,O,2,,,,,,,,,,,,,,,,,,,,,19,1,39,1,,,,,,,,,,,,,,,,,,,,,,,,,,,,,,,,,,,,,,,,,,,,,,,,,,,,,,,,,,,,,,,,,,869.8778359000571,870.8312178000342,None,0,869.8778359000571,870.8312178000342,870.8269926998764,None,,,,,,,,,TestSD,001,1,UA,2022_Feb_17_1029,task_complete_blocked_LC_updated,2021.2.3,243.37413937475011,
,,,X,1,,,,,,,,,,,,,,,,,,,,,20,0,40,0,,,,,,,,,,,,,,,,,,,,,,,,,,,,,,,,,,,,,,,,,,,,,,,,,,,,,,,,,,,,,,,,,,870.8779698999133,871.832287899917,None,0,870.8779698999133,871.832287899917,871.8238458998967,None,,,,,,,,,TestSD,001,1,UA,2022_Feb_17_1029,task_complete_blocked_LC_updated,2021.2.3,243.37413937475011,
,,,O,2,,,,,,,,,,,,,,,,,,,,,20,1,41,1,,,,,,,,,,,,,,,,,,,,,,,,,,,,,,,,,,,,,,,,,,,,,,,,,,,,,,,,,,,,,,,,,,871.8772134000901,872.8270211000927,None,0,871.8772134000901,872.8270211000927,872.8270211000927,None,,,,,,,,,TestSD,001,1,UA,2022_Feb_17_1029,task_complete_blocked_LC_updated,2021.2.3,243.37413937475011,
,,,X,1,,,,,,,,,,,,,,,,,,,,,21,0,42,0,,,,,,,,,,,,,,,,,,,,,,,,,,,,,,,,,,,,,,,,,,,,,,,,,,,,,,,,,,,,,,,,,,872.8787354999222,873.8312526000664,None,0,872.8787354999222,873.8312526000664,873.826568499906,None,,,,,,,,,TestSD,001,1,UA,2022_Feb_17_1029,task_complete_blocked_LC_updated,2021.2.3,243.37413937475011,
,,,O,2,,,,,,,,,,,,,,,,,,,,,21,1,43,1,,,,,,,,,,,,,,,,,,,,,,,,,,,,,,,,,,,,,,,,,,,,,,,,,,,,,,,,,,,,,,,,,,873.8779450999573,874.8362308000214,None,0,873.8779450999573,874.8362308000214,874.828965799883,None,,,,,,,,,TestSD,001,1,UA,2022_Feb_17_1029,task_complete_blocked_LC_updated,2021.2.3,243.37413937475011,
,,,O,2,,,,,,,,,,,,,,,,,,,,,22,0,44,1,,,,,,,,,,,,,,,,,,,,,,,,,,,,,,,,,,,,,,,,,,,,,,,,,,,,,,,,,,,,,,,,,,874.8778975999448,875.8303755000234,None,0,874.8778975999448,875.8303755000234,875.8261003999505,None,,,,,,,,,TestSD,001,1,UA,2022_Feb_17_1029,task_complete_blocked_LC_updated,2021.2.3,243.37413937475011,
,,,X,1,,,,,,,,,,,,,,,,,,,,,22,1,45,0,,,,,,,,,,,,,,,,,,,,,,,,,,,,,,,,,,,,,,,,,,,,,,,,,,,,,,,,,,,,,,,,,,875.8779843999073,876.8303040999454,None,0,875.8779843999073,876.8303040999454,876.8244922999293,None,,,,,,,,,TestSD,001,1,UA,2022_Feb_17_1029,task_complete_blocked_LC_updated,2021.2.3,243.37413937475011,
,,,X,1,,,,,,,,,,,,,,,,,,,,,23,0,46,0,,,,,,,,,,,,,,,,,,,,,,,,,,,,,,,,,,,,,,,,,,,,,,,,,,,,,,,,,,,,,,,,,,876.8786724999081,877.8300447000656,None,0,876.8786724999081,877.8300447000656,877.8246366998646,None,,,,,,,,,TestSD,001,1,UA,2022_Feb_17_1029,task_complete_blocked_LC_updated,2021.2.3,243.37413937475011,
,,,O,2,,,,,,,,,,,,,,,,,,,,,23,1,47,1,,,,,,,,,,,,,,,,,,,,,,,,,,,,,,,,,,,,,,,,,,,,,,,,,,,,,,,,,,,,,,,,,,877.8786669999827,878.8311093999073,None,0,877.8786669999827,878.8311093999073,878.8264681999572,None,,,,,,,,,TestSD,001,1,UA,2022_Feb_17_1029,task_complete_blocked_LC_updated,2021.2.3,243.37413937475011,
,,,X,1,,,,,,,,,,,,,,,,,,,,,24,0,48,0,,,,,,,,,,,,,,,,,,,,,,,,,,,,,,,,,,,,,,,,,,,,,,,,,,,,,,,,,,,,,,,,,,878.8789836000651,879.836822199868,None,0,878.8789836000651,879.836822199868,879.8322594000492,None,,,,,,,,,TestSD,001,1,UA,2022_Feb_17_1029,task_complete_blocked_LC_updated,2021.2.3,243.37413937475011,
,,,O,2,,,,,,,,,,,,,,,,,,,,,24,1,49,1,,,,,,,,,,,,,,,,,,,,,,,,,,,,,,,,,,,,,,,,,,,,,,,,,,,,,,,,,,,,,,,,,,879.8745464999229,880.8282790000085,None,0,879.8745464999229,880.8282790000085,880.8245486000087,None,,,,,,,,,TestSD,001,1,UA,2022_Feb_17_1029,task_complete_blocked_LC_updated,2021.2.3,243.37413937475011,
,,,X,1,,,,,,,,,,,,,,,,,,,,,25,0,50,0,,,,,,,,,,,,,,,,,,,,,,,,,,,,,,,,,,,,,,,,,,,,,,,,,,,,,,,,,,,,,,,,,,880.8756502999458,881.8310420000926,None,0,880.8756502999458,881.8310420000926,881.8265565000474,None,,,,,,,,,TestSD,001,1,UA,2022_Feb_17_1029,task_complete_blocked_LC_updated,2021.2.3,243.37413937475011,
,,,O,2,,,,,,,,,,,,,,,,,,,,,25,1,51,1,,,,,,,,,,,,,,,,,,,,,,,,,,,,,,,,,,,,,,,,,,,,,,,,,,,,,,,,,,,,,,,,,,881.8780201000627,882.8312603998929,None,0,881.8780201000627,882.8312603998929,882.8261051999871,None,,,,,,,,,TestSD,001,1,UA,2022_Feb_17_1029,task_complete_blocked_LC_updated,2021.2.3,243.37413937475011,
,,,O,2,,,,,,,,,,,,,,,,,,,,,26,0,52,1,,,,,,,,,,,,,,,,,,,,,,,,,,,,,,,,,,,,,,,,,,,,,,,,,,,,,,,,,,,,,,,,,,882.8782041000668,883.8304399999324,None,0,882.8782041000668,883.8304399999324,883.8248761000577,None,,,,,,,,,TestSD,001,1,UA,2022_Feb_17_1029,task_complete_blocked_LC_updated,2021.2.3,243.37413937475011,
,,,X,1,,,,,,,,,,,,,,,,,,,,,26,1,53,0,,,,,,,,,,,,,,,,,,,,,,,,,,,,,,,,,,,,,,,,,,,,,,,,,,,,,,,,,,,,,,,,,,883.8792167000938,884.8313140000682,None,0,883.8792167000938,884.8313140000682,884.8269501000177,None,,,,,,,,,TestSD,001,1,UA,2022_Feb_17_1029,task_complete_blocked_LC_updated,2021.2.3,243.37413937475011,
,,,X,1,,,,,,,,,,,,,,,,,,,,,27,0,54,0,,,,,,,,,,,,,,,,,,,,,,,,,,,,,,,,,,,,,,,,,,,,,,,,,,,,,,,,,,,,,,,,,,884.8816800999921,885.8408079999499,None,0,884.8816800999921,885.8408079999499,885.8370964000933,None,,,,,,,,,TestSD,001,1,UA,2022_Feb_17_1029,task_complete_blocked_LC_updated,2021.2.3,243.37413937475011,
,,,O,2,,,,,,,,,,,,,,,,,,,,,27,1,55,1,,,,,,,,,,,,,,,,,,,,,,,,,,,,,,,,,,,,,,,,,,,,,,,,,,,,,,,,,,,,,,,,,,885.880806399975,886.838743600063,None,0,885.880806399975,886.838743600063,886.8299042000435,None,,,,,,,,,TestSD,001,1,UA,2022_Feb_17_1029,task_complete_blocked_LC_updated,2021.2.3,243.37413937475011,
,,,X,1,,,,,,,,,,,,,,,,,,,,,28,0,56,0,,,,,,,,,,,,,,,,,,,,,,,,,,,,,,,,,,,,,,,,,,,,,,,,,,,,,,,,,,,,,,,,,,886.8796480998863,887.8312458000146,None,0,886.8796480998863,887.8312458000146,887.8278145999648,None,,,,,,,,,TestSD,001,1,UA,2022_Feb_17_1029,task_complete_blocked_LC_updated,2021.2.3,243.37413937475011,
,,,O,2,,,,,,,,,,,,,,,,,,,,,28,1,57,1,,,,,,,,,,,,,,,,,,,,,,,,,,,,,,,,,,,,,,,,,,,,,,,,,,,,,,,,,,,,,,,,,,887.8778293000069,888.8303276998922,None,0,887.8778293000069,888.8303276998922,888.8243164999876,None,,,,,,,,,TestSD,001,1,UA,2022_Feb_17_1029,task_complete_blocked_LC_updated,2021.2.3,243.37413937475011,
,,,O,2,,,,,,,,,,,,,,,,,,,,,29,0,58,1,,,,,,,,,,,,,,,,,,,,,,,,,,,,,,,,,,,,,,,,,,,,,,,,,,,,,,,,,,,,,,,,,,888.8763776000123,889.8263540999033,None,0,888.8763776000123,889.8263540999033,889.8227049000561,None,,,,,,,,,TestSD,001,1,UA,2022_Feb_17_1029,task_complete_blocked_LC_updated,2021.2.3,243.37413937475011,
,,,X,1,,,,,,,,,,,,,,,,,,,,,29,1,59,0,,,,,,,,,,,,,,,,,,,,,,,,,,,,,,,,,,,,,,,,,,,,,,,,,,,,,,,,,,,,,,,,,,889.8759041000158,890.8261875000317,None,0,889.8759041000158,890.8261875000317,890.8227093000896,None,,,,,,,,,TestSD,001,1,UA,2022_Feb_17_1029,task_complete_blocked_LC_updated,2021.2.3,243.37413937475011,
,,,,,,,,,,,,,,,,,,,,,,,,,,,,,,,,,,,,,,,,,,,,,,,,,,,,,,,,,,,,,,,,,,,,,,,,,,,,,,,,,,,,,,,,,,,,,,,,,,,,,,890.8749442000408,None,space,5.059568400029093,895.8744365000166,None,,,TestSD,001,1,UA,2022_Feb_17_1029,task_complete_blocked_LC_updated,2021.2.3,243.37413937475011,
,,,,,,,,,,,,,,,,,,,,,,,,,,,,,,,,,,,,,,,,,,,,,,,,,,,,,,,,,,,,,,,,,900.9418045000639,None,5,128.28028880013153,900.9418045000639,None,,,,,,,,,,,,,,,,,,,,,,,,,,,,,,,,,,,,,,895.8744365000166,None,TestSD,001,1,UA,2022_Feb_17_1029,task_complete_blocked_LC_updated,2021.2.3,243.37413937475011,
stimulus_images/ABULLDOG5.jpg,SPACE,0,,,,,,,,,,,,,,,,,,,,,,,,,,,0,0,0,6,,,,,,,,,,,,,,,,,,,,,,,,,,,,,,,,,,,,,,,2.499902620911598e-06,1029.2530175999273,1031.2520888000727,1029.2530175999273,1031.2520888000727,1030.2475509999786,1031.2489437998738,1030.2475509999786,1031.2489437998738,1031.2489437998738,None,5.988092700019479,1035.2372655998915,None,1035.2372655998915,None,None,1035.2372655998915,None,1041.2374559999444,None,,,,,,,,,,,,,,,,,,,TestSD,001,1,UA,2022_Feb_17_1029,task_complete_blocked_LC_updated,2021.2.3,243.37413937475011,
stimulus_images/Ababseat2.jpg,SPACE,0,,,,,,,,,,,,,,,,,,,,,,,,,,,0,1,1,3,,,,,,,,,,,,,,,,,,,,,,,,,,,,,,,,,,,,,,,13.991682499879971,1043.243673400022,1045.2528391999658,1043.243673400022,1045.2528391999658,1044.242278699996,1045.246569900075,1044.242278699996,1045.246569900075,1045.246569900075,None,19.992248199880123,1049.2408694999758,None,1049.2408694999758,None,None,1049.2408694999758,None,1055.2441992000677,None,,,,,,,,,,,,,,,,,,,TestSD,001,1,UA,2022_Feb_17_1029,task_complete_blocked_LC_updated,2021.2.3,243.37413937475011,
stimulus_images/AFILM.jpg,SPACE,0,,,,,,,,,,,,,,,,,,,,,,,,,,,0,2,2,9,,,,,,,,,,,,,,,,,,,,,,,,,,,,,,,,,,,,,,,26.999908699886873,1056.2578102999832,1058.2585352000315,1056.2578102999832,1058.2585352000315,1057.2552439998835,1058.2585352000315,1057.2552439998835,1058.2585352000315,1058.2585352000315,None,33.00423979992047,1062.2526016000193,None,1062.2526016000193,None,None,1062.2526016000193,None,1068.252060299972,None,,,,,,,,,,,,,,,,,,,TestSD,001,1,UA,2022_Feb_17_1029,task_complete_blocked_LC_updated,2021.2.3,243.37413937475011,
stimulus_images/Achair608.jpg,SPACE,0,,,,,,,,,,,,,,,,,,,,,,,,,,,0,3,3,7,,,,,,,,,,,,,,,,,,,,,,,,,,,,,,,,,,,,,,,42.00613739993423,1071.27443520003,1073.2731316999998,1071.27443520003,1073.2731316999998,1072.2672693999484,1073.2701033998746,1072.2672693999484,1073.2701033998746,1073.2701033998746,None,48.009328099898994,1077.2581195000093,None,1077.2581195000093,None,None,1077.2581195000093,None,1083.2612214998808,None,,,,,,,,,,,,,,,,,,,TestSD,001,1,UA,2022_Feb_17_1029,task_complete_blocked_LC_updated,2021.2.3,243.37413937475011,
stimulus_images/Abaseballcap.jpg,SPACE,0,,,,,,,,,,,,,,,,,,,,,,,,,,,0,4,4,4,,,,,,,,,,,,,,,,,,,,,,,,,,,,,,,,,,,,,,,55.016757800010964,1084.2748871999793,1086.2767574999016,1084.2748871999793,1086.2767574999016,1085.2715284998994,1086.2731041999068,1085.2715284998994,1086.2731041999068,1086.2731041999068,None,61.02175509999506,1090.271735999966,None,1090.271735999966,None,None,1090.271735999966,None,1096.2651446000673,None,,,,,,,,,,,,,,,,,,,TestSD,001,1,UA,2022_Feb_17_1029,task_complete_blocked_LC_updated,2021.2.3,243.37413937475011,
stimulus_images/acquarium.jpg,SPACE,1,,,,,,,,,,,,,,,,,,,,,,,,,,,0,5,5,8,,,,,,,,,,,,,,,,,,,,,,,,,,,,,,,,,,,,,,,69.02111410000362,1098.2791764999274,1100.2818926000036,1098.2791764999274,1100.2818926000036,1099.27466190001,1100.27798169991,1099.27466190001,1100.27798169991,1100.273791699903,None,75.0239235998597,1104.2744521000423,None,1104.2744521000423,None,None,1104.2744521000423,None,1110.2740682999138,None,,,,,,,,,,,,,,,,,,,TestSD,001,1,UA,2022_Feb_17_1029,task_complete_blocked_LC_updated,2021.2.3,243.37413937475011,
stimulus_images/Ablackma3.jpg,SPACE,1,,,,,,,,,,,,,,,,,,,,,,,,,,,0,6,6,5,,,,,,,,,,,,,,,,,,,,,,,,,,,,,,,,,,,,,,,84.02791179995984,1113.2817219998688,1115.2822565999813,1113.2817219998688,1115.2822565999813,1114.277468800079,1115.2793044000864,1114.277468800079,1115.2793044000864,1115.2793044000864,None,90.03046329994686,1119.278975599911,None,1119.278975599911,None,None,1119.278975599911,None,1125.2818829000462,None,,,,,,,,,,,,,,,,,,,TestSD,001,1,UA,2022_Feb_17_1029,task_complete_blocked_LC_updated,2021.2.3,243.37413937475011,
stimulus_images/AAFRICI13.jpg,SPACE,0,,,,,,,,,,,,,,,,,,,,,,,,,,,0,7,7,1,,,,,,,,,,,,,,,,,,,,,,,,,,,,,,,,,,,,,,,99.0367232998833,1128.2939504999667,1130.2925905000884,1128.2939504999667,1130.2925905000884,1129.289785800036,1130.2925905000884,1129.289785800036,1130.2925905000884,1130.289503699867,None,105.03804659983143,1134.2863682000898,None,1134.2863682000898,None,None,1134.2863682000898,None,1140.286633499898,None,,,,,,,,,,,,,,,,,,,TestSD,001,1,UA,2022_Feb_17_1029,task_complete_blocked_LC_updated,2021.2.3,243.37413937475011,
stimulus_images/A1OCLOC2.jpg,SPACE,0,,,,,,,,,,,,,,,,,,,,,,,,,,,0,8,8,0,,,,,,,,,,,,,,,,,,,,,,,,,,,,,,,,,,,,,,,114.0399678000249,1143.2916345000267,1145.293972400017,1143.2916345000267,1145.293972400017,1144.2855265999679,1145.286705599865,1144.2855265999679,1145.286705599865,1145.286705599865,None,120.0400841999799,1149.2884023000952,None,1149.2884023000952,None,None,1149.2884023000952,None,1155.2909973000642,None,,,,,,,,,,,,,,,,,,,TestSD,001,1,UA,2022_Feb_17_1029,task_complete_blocked_LC_updated,2021.2.3,243.37413937475011,
stimulus_images/AANTIBIK4.jpg,SPACE,1,,,,,,,,,,,,,,,,,,,,,,,,,,,0,9,9,2,,,,,,,,,,,,,,,,,,,,,,,,,,,,,,,,,,,,,,,127.04592509986833,1156.2982029998675,1158.2993133000564,1156.2982029998675,1158.2993133000564,1157.2928996998817,1158.295712399995,1157.2928996998817,1158.295712399995,1158.295712399995,None,133.04732170002535,1162.2961134000216,None,1162.2961134000216,None,None,1162.2961134000216,None,1168.298639100045,None,,,,,,,,,,,,,,,,,,,TestSD,001,1,UA,2022_Feb_17_1029,task_complete_blocked_LC_updated,2021.2.3,243.37413937475011,
stimulus_images/AAIRPUMP2.jpg,SPACE,0,,,,,,,,,,,,,,,,,,,,,,,,,,,,,,,0,0,0,8,,,,,,,,,,,,,,,,,,,,,,,,,,,,,,,,,,,142.0582601998467,1171.3150070998818,1173.3216885000002,1171.3150070998818,1173.3216885000002,1172.3099464999977,1173.3155751999002,1172.3099464999977,1173.3155751999002,1173.3155751999002,None,148.05568129988387,1177.3046788000502,None,1177.3046788000502,None,None,1177.3046788000502,None,1183.3042003998999,None,,,,,,,,,,,,,,,,,,,TestSD,001,1,UA,2022_Feb_17_1029,task_complete_blocked_LC_updated,2021.2.3,243.37413937475011,
stimulus_images/woodvase.jpg,SPACE,1,,,,,,,,,,,,,,,,,,,,,,,,,,,,,,,0,1,1,6,,,,,,,,,,,,,,,,,,,,,,,,,,,,,,,,,,,156.05998969986103,1185.3178864999209,1187.3274310000706,1185.3178864999209,1187.3274310000706,1186.311690799892,1187.3274310000706,1186.311690799892,1187.3274310000706,1187.3213104999159,None,162.06199719989672,1191.3098855998833,None,1191.3098855998833,None,None,1191.3098855998833,None,1197.3123450998683,None,,,,,,,,,,,,,,,,,,,TestSD,001,1,UA,2022_Feb_17_1029,task_complete_blocked_LC_updated,2021.2.3,243.37413937475011,
stimulus_images/A4DOMINO.jpg,SPACE,0,,,,,,,,,,,,,,,,,,,,,,,,,,,,,,,0,2,2,7,,,,,,,,,,,,,,,,,,,,,,,,,,,,,,,,,,,170.06757720001042,1199.3193769000936,1201.3198422999121,1199.3193769000936,1201.3198422999121,1200.3145282999612,1201.3198422999121,1200.3145282999612,1201.3198422999121,1201.3160596999805,None,176.06912729982287,1205.3171709999442,None,1205.3171709999442,None,None,1205.3171709999442,None,1211.3159294999205,None,,,,,,,,,,,,,,,,,,,TestSD,001,1,UA,2022_Feb_17_1029,task_complete_blocked_LC_updated,2021.2.3,243.37413937475011,
stimulus_images/Aantiquejuke2.jpg,SPACE,0,,,,,,,,,,,,,,,,,,,,,,,,,,,,,,,0,3,3,9,,,,,,,,,,,,,,,,,,,,,,,,,,,,,,,,,,,185.06959279999137,1214.327300200006,1216.3319399000611,1214.327300200006,1216.3319399000611,1215.323992999969,1216.32841810002,1215.323992999969,1216.32841810002,1216.32841810002,None,191.0720171998255,1220.3206831999123,None,1220.3206831999123,None,None,1220.3206831999123,None,1226.3200886000413,None,,,,,,,,,,,,,,,,,,,TestSD,001,1,UA,2022_Feb_17_1029,task_complete_blocked_LC_updated,2021.2.3,243.37413937475011,
stimulus_images/Asaxophone.jpg,SPACE,1,,,,,,,,,,,,,,,,,,,,,,,,,,,,,,,0,4,4,3,,,,,,,,,,,,,,,,,,,,,,,,,,,,,,,,,,,199.07585679995827,1228.328205500031,1230.3281580000184,1228.328205500031,1230.3281580000184,1229.3269805999007,1230.3281580000184,1229.3269805999007,1230.3281580000184,1230.3254507000092,None,205.0766266998835,1234.3253721999936,None,1234.3253721999936,None,None,1234.3253721999936,None,1240.3345445999876,None,,,,,,,,,,,,,,,,,,,TestSD,001,1,UA,2022_Feb_17_1029,task_complete_blocked_LC_updated,2021.2.3,243.37413937475011,
stimulus_images/Atoywheels.jpg,SPACE,0,,,,,,,,,,,,,,,,,,,,,,,,,,,,,,,0,5,5,4,,,,,,,,,,,,,,,,,,,,,,,,,,,,,,,,,,,212.0887408000417,1241.3404035998974,1243.344942699885,1241.3404035998974,1243.344942699885,1242.3371902999934,1243.344942699885,1242.3371902999934,1243.344942699885,1243.3375808000565,None,218.09123379993252,1247.3454775998835,None,1247.3454775998835,None,None,1247.3454775998835,None,1253.338584000012,None,,,,,,,,,,,,,,,,,,,TestSD,001,1,UA,2022_Feb_17_1029,task_complete_blocked_LC_updated,2021.2.3,243.37413937475011,
stimulus_images/Apedestal3.jpg,SPACE,0,,,,,,,,,,,,,,,,,,,,,,,,,,,,,,,0,6,6,2,,,,,,,,,,,,,,,,,,,,,,,,,,,,,,,,,,,226.0942790999543,1255.3455757000484,1257.345487399958,1255.3455757000484,1257.345487399958,1256.3430667000357,1257.345487399958,1256.3430667000357,1257.345487399958,1257.3423943999223,None,232.09724959987216,1261.345722099999,None,1261.345722099999,None,None,1261.345722099999,None,1267.346031999914,None,,,,,,,,,,,,,,,,,,,TestSD,001,1,UA,2022_Feb_17_1029,task_complete_blocked_LC_updated,2021.2.3,243.37413937475011,
stimulus_images/keys-a.jpg,SPACE,0,,,,,,,,,,,,,,,,,,,,,,,,,,,,,,,0,7,7,5,,,,,,,,,,,,,,,,,,,,,,,,,,,,,,,,,,,239.1010253999848,1268.3594565000385,1270.366783699952,1268.3594565000385,1270.366783699952,1269.3603838998824,1270.366783699952,1269.3603838998824,1270.366783699952,1270.3615011000074,None,245.10480830003507,1274.3537381000351,None,1274.3537381000351,None,None,1274.3537381000351,None,1280.3613527000416,None,,,,,,,,,,,,,,,,,,,TestSD,001,1,UA,2022_Feb_17_1029,task_complete_blocked_LC_updated,2021.2.3,243.37413937475011,
stimulus_images/ALAMP.jpg,SPACE,0,,,,,,,,,,,,,,,,,,,,,,,,,,,,,,,0,8,8,1,,,,,,,,,,,,,,,,,,,,,,,,,,,,,,,,,,,253.1181673000101,1282.3693661999423,1284.3711451999843,1282.3693661999423,1284.3711451999843,1283.3645667000674,1284.3678468000144,1283.3645667000674,1284.3678468000144,1284.3637755000964,None,259.11989569989964,1288.367924900027,None,1288.367924900027,None,None,1288.367924900027,None,1294.373148499988,None,,,,,,,,,,,,,,,,,,,TestSD,001,1,UA,2022_Feb_17_1029,task_complete_blocked_LC_updated,2021.2.3,243.37413937475011,
stimulus_images/Agrilledmeata.jpg,SPACE,0,,,,,,,,,,,,,,,,,,,,,,,,,,,,,,,0,9,9,0,,,,,,,,,,,,,,,,,,,,,,,,,,,,,,,,,,,266.12683219998144,1295.3848443999887,1297.3933206999209,1295.3848443999887,1297.3933206999209,1296.3828390999697,1297.3933206999209,1296.3828390999697,1297.3933206999209,1297.388521600049,None,272.12837279983796,1301.3781868000515,None,1301.3781868000515,None,None,1301.3781868000515,None,1307.3868247999344,None,,,,,,,,,,,,,,,,,,,TestSD,001,1,UA,2022_Feb_17_1029,task_complete_blocked_LC_updated,2021.2.3,243.37413937475011,
,,,O,2,,,,,,,,,,,,,,,,,,,,,,,,,,,,,,,,,0,0,0,1,,,,,,,,,,,,,,,,,,,,,,,,,,,,,,,,,,,,,,,,,,,,,,,,,,,,1309.391252399888,None,1312.3982583000325,1313.3548031998798,None,0,1312.3982583000325,1313.3548031998798,1313.3485838000197,None,,,,,,,,,TestSD,001,1,UA,2022_Feb_17_1029,task_complete_blocked_LC_updated,2021.2.3,243.37413937475011,
,,,X,1,,,,,,,,,,,,,,,,,,,,,,,,,,,,,,,,,0,1,1,0,,,,,,,,,,,,,,,,,,,,,,,,,,,,,,,,,,,,,,,,,,,,,,,,,,,,,,1313.4000178999268,1314.3549780000467,None,0,1313.4000178999268,1314.3549780000467,1314.351170500042,None,,,,,,,,,TestSD,001,1,UA,2022_Feb_17_1029,task_complete_blocked_LC_updated,2021.2.3,243.37413937475011,
,,,X,1,,,,,,,,,,,,,,,,,,,,,,,,,,,,,,,,,1,0,2,0,,,,,,,,,,,,,,,,,,,,,,,,,,,,,,,,,,,,,,,,,,,,,,,,,,,,,,1314.3927209998947,1315.3423494000454,None,0,1314.3927209998947,1315.3423494000454,1315.3423494000454,None,,,,,,,,,TestSD,001,1,UA,2022_Feb_17_1029,task_complete_blocked_LC_updated,2021.2.3,243.37413937475011,
,,,O,2,,,,,,,,,,,,,,,,,,,,,,,,,,,,,,,,,1,1,3,1,,,,,,,,,,,,,,,,,,,,,,,,,,,,,,,,,,,,,,,,,,,,,,,,,,,,,,1315.3934007000644,1316.3500270999502,None,0,1315.3934007000644,1316.3500270999502,1316.3444520998746,None,,,,,,,,,TestSD,001,1,UA,2022_Feb_17_1029,task_complete_blocked_LC_updated,2021.2.3,243.37413937475011,
,,,X,1,,,,,,,,,,,,,,,,,,,,,,,,,,,,,,,,,2,0,4,0,,,,,,,,,,,,,,,,,,,,,,,,,,,,,,,,,,,,,,,,,,,,,,,,,,,,,,1316.3942410999443,1317.346574000083,None,0,1316.3942410999443,1317.346574000083,1317.3401283998974,None,,,,,,,,,TestSD,001,1,UA,2022_Feb_17_1029,task_complete_blocked_LC_updated,2021.2.3,243.37413937475011,
,,,O,2,,,,,,,,,,,,,,,,,,,,,,,,,,,,,,,,,2,1,5,1,,,,,,,,,,,,,,,,,,,,,,,,,,,,,,,,,,,,,,,,,,,,,,,,,,,,,,1317.3934170999564,1318.3463508000132,None,0,1317.3934170999564,1318.3463508000132,1318.342815699987,None,,,,,,,,,TestSD,001,1,UA,2022_Feb_17_1029,task_complete_blocked_LC_updated,2021.2.3,243.37413937475011,
,,,O,2,,,,,,,,,,,,,,,,,,,,,,,,,,,,,,,,,3,0,6,1,,,,,,,,,,,,,,,,,,,,,,,,,,,,,,,,,,,,,,,,,,,,,,,,,,,,,,1318.3926673000678,1319.3424515000079,None,0,1318.3926673000678,1319.3424515000079,1319.3381487999577,None,,,,,,,,,TestSD,001,1,UA,2022_Feb_17_1029,task_complete_blocked_LC_updated,2021.2.3,243.37413937475011,
,,,X,1,,,,,,,,,,,,,,,,,,,,,,,,,,,,,,,,,3,1,7,0,,,,,,,,,,,,,,,,,,,,,,,,,,,,,,,,,,,,,,,,,,,,,,,,,,,,,,1319.3905178999994,1320.3456077000592,None,0,1319.3905178999994,1320.3456077000592,1320.3401273000054,1319.3905178999994,,,,,,,,,TestSD,001,1,UA,2022_Feb_17_1029,task_complete_blocked_LC_updated,2021.2.3,243.37413937475011,
,,,O,2,,,,,,,,,,,,,,,,,,,,,,,,,,,,,,,,,4,0,8,1,,,,,,,,,,,,,,,,,,,,,,,,,,,,,,,,,,,,,,,,,,,,,,,,,,,,,,1320.393913500011,1321.3536668999586,None,0,1320.393913500011,1321.3536668999586,1321.3450257000513,None,,,,,,,,,TestSD,001,1,UA,2022_Feb_17_1029,task_complete_blocked_LC_updated,2021.2.3,243.37413937475011,
,,,X,1,,,,,,,,,,,,,,,,,,,,,,,,,,,,,,,,,4,1,9,0,,,,,,,,,,,,,,,,,,,,,,,,,,,,,,,,,,,,,,,,,,,,,,,,,,,,,,1321.4036032999866,1322.356539099943,None,0,1321.4036032999866,1322.356539099943,1322.3461340998765,None,,,,,,,,,TestSD,001,1,UA,2022_Feb_17_1029,task_complete_blocked_LC_updated,2021.2.3,243.37413937475011,
,,,O,2,,,,,,,,,,,,,,,,,,,,,,,,,,,,,,,,,5,0,10,1,,,,,,,,,,,,,,,,,,,,,,,,,,,,,,,,,,,,,,,,,,,,,,,,,,,,,,1322.3950235999655,1323.3462731000036,None,0,1322.3950235999655,1323.3462731000036,1323.3462731000036,None,,,,,,,,,TestSD,001,1,UA,2022_Feb_17_1029,task_complete_blocked_LC_updated,2021.2.3,243.37413937475011,
,,,X,1,,,,,,,,,,,,,,,,,,,,,,,,,,,,,,,,,5,1,11,0,,,,,,,,,,,,,,,,,,,,,,,,,,,,,,,,,,,,,,,,,,,,,,,,,,,,,,1323.393301300006,1324.3434929999057,None,0,1323.393301300006,1324.3434929999057,1324.340109199984,None,,,,,,,,,TestSD,001,1,UA,2022_Feb_17_1029,task_complete_blocked_LC_updated,2021.2.3,243.37413937475011,
,,,O,2,,,,,,,,,,,,,,,,,,,,,,,,,,,,,,,,,6,0,12,1,,,,,,,,,,,,,,,,,,,,,,,,,,,,,,,,,,,,,,,,,,,,,,,,,,,,,,1324.39353329991,1325.3463540999219,None,0,1324.39353329991,1325.3463540999219,1325.3427029999439,None,,,,,,,,,TestSD,001,1,UA,2022_Feb_17_1029,task_complete_blocked_LC_updated,2021.2.3,243.37413937475011,
,,,X,1,,,,,,,,,,,,,,,,,,,,,,,,,,,,,,,,,6,1,13,0,,,,,,,,,,,,,,,,,,,,,,,,,,,,,,,,,,,,,,,,,,,,,,,,,,,,,,1325.3945094000082,1326.3500598999672,None,0,1325.3945094000082,1326.3500598999672,1326.3438341000583,None,,,,,,,,,TestSD,001,1,UA,2022_Feb_17_1029,task_complete_blocked_LC_updated,2021.2.3,243.37413937475011,
,,,X,1,,,,,,,,,,,,,,,,,,,,,,,,,,,,,,,,,7,0,14,0,,,,,,,,,,,,,,,,,,,,,,,,,,,,,,,,,,,,,,,,,,,,,,,,,,,,,,1326.3927941999864,1327.3467772000004,None,0,1326.3927941999864,1327.3467772000004,1327.3424460999668,None,,,,,,,,,TestSD,001,1,UA,2022_Feb_17_1029,task_complete_blocked_LC_updated,2021.2.3,243.37413937475011,
,,,O,2,,,,,,,,,,,,,,,,,,,,,,,,,,,,,,,,,7,1,15,1,,,,,,,,,,,,,,,,,,,,,,,,,,,,,,,,,,,,,,,,,,,,,,,,,,,,,,1327.3944377000444,1328.3464780999348,None,0,1327.3944377000444,1328.3464780999348,1328.3404981999192,None,,,,,,,,,TestSD,001,1,UA,2022_Feb_17_1029,task_complete_blocked_LC_updated,2021.2.3,243.37413937475011,
,,,X,1,,,,,,,,,,,,,,,,,,,,,,,,,,,,,,,,,8,0,16,0,,,,,,,,,,,,,,,,,,,,,,,,,,,,,,,,,,,,,,,,,,,,,,,,,,,,,,1328.3942116999533,1329.3461809998844,None,0,1328.3942116999533,1329.3461809998844,1329.3419619000051,None,,,,,,,,,TestSD,001,1,UA,2022_Feb_17_1029,task_complete_blocked_LC_updated,2021.2.3,243.37413937475011,
,,,O,2,,,,,,,,,,,,,,,,,,,,,,,,,,,,,,,,,8,1,17,1,,,,,,,,,,,,,,,,,,,,,,,,,,,,,,,,,,,,,,,,,,,,,,,,,,,,,,1329.3933870000765,1330.3462151000276,None,0,1329.3933870000765,1330.3462151000276,1330.3407512998674,None,,,,,,,,,TestSD,001,1,UA,2022_Feb_17_1029,task_complete_blocked_LC_updated,2021.2.3,243.37413937475011,
,,,X,1,,,,,,,,,,,,,,,,,,,,,,,,,,,,,,,,,9,0,18,0,,,,,,,,,,,,,,,,,,,,,,,,,,,,,,,,,,,,,,,,,,,,,,,,,,,,,,1330.3944663999137,1331.3501156999264,None,0,1330.3944663999137,1331.3501156999264,1331.3442867998965,None,,,,,,,,,TestSD,001,1,UA,2022_Feb_17_1029,task_complete_blocked_LC_updated,2021.2.3,243.37413937475011,
