stimImg,taskType,audTrial,letter,correctResponse,familiarCorrect,sourceCorrect,encode_trials1.thisRepN,encode_trials1.thisTrialN,encode_trials1.thisN,encode_trials1.thisIndex,encode_trials2.thisRepN,encode_trials2.thisTrialN,encode_trials2.thisN,encode_trials2.thisIndex,distractor.thisRepN,distractor.thisTrialN,distractor.thisN,distractor.thisIndex,encode_trials3.thisRepN,encode_trials3.thisTrialN,encode_trials3.thisN,encode_trials3.thisIndex,encode_trials4.thisRepN,encode_trials4.thisTrialN,encode_trials4.thisN,encode_trials4.thisIndex,distractor_2.thisRepN,distractor_2.thisTrialN,distractor_2.thisN,distractor_2.thisIndex,encode_trials5.thisRepN,encode_trials5.thisTrialN,encode_trials5.thisN,encode_trials5.thisIndex,encode_trials6.thisRepN,encode_trials6.thisTrialN,encode_trials6.thisN,encode_trials6.thisIndex,distractor3.thisRepN,distractor3.thisTrialN,distractor3.thisN,distractor3.thisIndex,encode_trials7.thisRepN,encode_trials7.thisTrialN,encode_trials7.thisN,encode_trials7.thisIndex,encode_trials8.thisRepN,encode_trials8.thisTrialN,encode_trials8.thisN,encode_trials8.thisIndex,distractor4.thisRepN,distractor4.thisTrialN,distractor4.thisN,distractor4.thisIndex,retrieval_trials1.thisRepN,retrieval_trials1.thisTrialN,retrieval_trials1.thisN,retrieval_trials1.thisIndex,retrieval_trials2.thisRepN,retrieval_trials2.thisTrialN,retrieval_trials2.thisN,retrieval_trials2.thisIndex,retrieval_trials3.thisRepN,retrieval_trials3.thisTrialN,retrieval_trials3.thisN,retrieval_trials3.thisIndex,retrieval_trials4.thisRepN,retrieval_trials4.thisTrialN,retrieval_trials4.thisN,retrieval_trials4.thisIndex,button_check_1.started,button_check_1.stopped,button_check_resp_1.keys,button_check_resp_1.rt,button_check_resp_1.started,button_check_resp_1.stopped,text_2.started,text_2.stopped,key_resp_3.keys,key_resp_3.rt,key_resp_3.started,key_resp_3.stopped,text_3.started,text_3.stopped,key_resp_4.keys,key_resp_4.rt,key_resp_4.started,key_resp_4.stopped,text_4.started,text_4.stopped,key_resp_5.keys,key_resp_5.rt,key_resp_5.started,key_resp_5.stopped,wait_text.started,wait_text.stopped,scanner_pulse.keys,scanner_pulse.rt,scanner_pulse.started,scanner_pulse.stopped,Trial_cue_onset,instruction.started,instruction.stopped,image_3.started,image_3.stopped,in_.started,in_.stopped,source_cue.started,source_cue.stopped,fixation.started,fixation.stopped,Response_cue_onset,rating.started,rating.stopped,text.started,text.stopped,rating_resp.keys,rating_resp.rt,rating_resp.started,rating_resp.stopped,text_16.started,text_16.stopped,instruc.started,instruc.stopped,distractor_task.started,distractor_task.stopped,distractor_task_resp.keys,distractor_task_resp.corr,distractor_task_resp.started,distractor_task_resp.stopped,flicker.started,flicker.stopped,distractor_task_resp.rt,end_screen.started,end_screen.stopped,spacebar_press.keys,spacebar_press.rt,spacebar_press.started,spacebar_press.stopped,one_moment.started,one_moment.stopped,Trial_familiarity_onset,item_rec.started,item_rec.stopped,image_4.started,image_4.stopped,item_rec_guide.started,item_rec_guide.stopped,item_rec_resp.keys,item_rec_resp.corr,item_rec_resp.started,item_rec_resp.stopped,Trial_source_onset,source_rec.started,source_rec.stopped,source_rec_resp.keys,source_rec_resp.corr,source_rec_resp.rt,source_rec_resp.started,source_rec_resp.stopped,item_rec_resp.rt,text_14.started,text_14.stopped,participant,session,group,university,date,expName,psychopyVersion,frameRate,
,,,,,,,,,,,,,,,,,,,,,,,,,,,,,,,,,,,,,,,,,,,,,,,,,,,,,,,,,,,,,,,,,,,,,,,1979.7056358000264,None,1,18.30805670004338,1979.7056358000264,None,,,,,,,,,,,,,,,,,,,,,,,,,,,,,,,,,,,,,,,,,,,,,,,,,,,,,,,,,,,,,,,,,,,,,,,,,,,,,,,,,,,,,,,,1103,001,2,UA,2022_Feb_18_1342,task_complete_blocked_LC_updated,2021.2.3,239.20583636832805,
,,,,,,,,,,,,,,,,,,,,,,,,,,,,,,,,,,,,,,,,,,,,,,,,,,,,,,,,,,,,,,,,,,,,,,,,,,,,,1998.0306202999782,None,2,1.1529469001106918,1998.0306202999782,None,,,,,,,,,,,,,,,,,,,,,,,,,,,,,,,,,,,,,,,,,,,,,,,,,,,,,,,,,,,,,,,,,,,,,,,,,,,,,,,,,,1103,001,2,UA,2022_Feb_18_1342,task_complete_blocked_LC_updated,2021.2.3,239.20583636832805,
,,,,,,,,,,,,,,,,,,,,,,,,,,,,,,,,,,,,,,,,,,,,,,,,,,,,,,,,,,,,,,,,,,,,,,,,,,,,,,,,,,,1999.1899741000962,None,3,0.6027049999684095,1999.1899741000962,None,,,,,,,,,,,,,,,,,,,,,,,,,,,,,,,,,,,,,,,,,,,,,,,,,,,,,,,,,,,,,,,,,,,,,,,,,,,,1103,001,2,UA,2022_Feb_18_1342,task_complete_blocked_LC_updated,2021.2.3,239.20583636832805,
,,,,,,,,,,,,,,,,,,,,,,,,,,,,,,,,,,,,,,,,,,,,,,,,,,,,,,,,,,,,,,,,,,,,,,,,,,,,,,,,,,,,,,,,,1999.8066392000765,None,4,0.5339246999938041,1999.8066392000765,None,,,,,,,,,,,,,,,,,,,,,,,,,,,,,,,,,,,,,,,,,,,,,,,,,,,,,,,,,,,,,,,,,,,,,,1103,001,2,UA,2022_Feb_18_1342,task_complete_blocked_LC_updated,2021.2.3,239.20583636832805,
,,,,,,,,,,,,,,,,,,,,,,,,,,,,,,,,,,,,,,,,,,,,,,,,,,,,,,,,,,,,,,,,,,,,,,,,,,,,,,,,,,,,,,,,,,,,,,,2000.3470157999545,None,5,152.59165910002775,2000.3470157999545,None,,,,,,,,,,,,,,,,,,,,,,,,,,,,,,,,,,,,,,,,,,,,,,,,,,,,,,,,,,,,,,,,1103,001,2,UA,2022_Feb_18_1342,task_complete_blocked_LC_updated,2021.2.3,239.20583636832805,
stimulus_images/Aboxofchocola.jpg,SPACE,0,,,,,0,0,0,3,,,,,,,,,,,,,,,,,,,,,,,,,,,,,,,,,,,,,,,,,,,,,,,,,,,,,,,,,,,,,,,,,,,,,,,,,,,,,,,,,,,,,,,,,,,2.600019797682762e-06,2152.976196500007,2154.9791918001138,2152.976196500007,2154.9791918001138,2153.9670055999886,2154.970758000156,2153.9670055999886,2154.970758000156,2154.9668773000594,None,5.981849899981171,2158.946816700045,None,2158.946816700045,None,3,4.782282300060615,2158.946816700045,None,2164.951515800087,None,,,,,,,,,,,,,,,,,,,,,,,,,,,,,,,,,,,,,,,,,,1103,001,2,UA,2022_Feb_18_1342,task_complete_blocked_LC_updated,2021.2.3,239.20583636832805,
stimulus_images/AOTOSCOP5.jpg,SPACE,0,,,,,0,1,1,9,,,,,,,,,,,,,,,,,,,,,,,,,,,,,,,,,,,,,,,,,,,,,,,,,,,,,,,,,,,,,,,,,,,,,,,,,,,,,,,,,,,,,,,,,,,14.991640700027347,2167.965688199969,2169.9668149999343,2167.965688199969,2169.9668149999343,2168.963305500103,2169.9630621001124,2168.963305500103,2169.9630621001124,2169.9630621001124,None,20.994134299922734,2173.958397099981,None,2173.958397099981,None,4,1.2881548998411745,2173.958397099981,None,2179.956198700005,None,,,,,,,,,,,,,,,,,,,,,,,,,,,,,,,,,,,,,,,,,,1103,001,2,UA,2022_Feb_18_1342,task_complete_blocked_LC_updated,2021.2.3,239.20583636832805,
stimulus_images/Agiftbag20.jpg,SPACE,1,,,,,0,2,2,7,,,,,,,,,,,,,,,,,,,,,,,,,,,,,,,,,,,,,,,,,,,,,,,,,,,,,,,,,,,,,,,,,,,,,,,,,,,,,,,,,,,,,,,,,,,27.9959754999727,2180.9634720999748,2182.964388200082,2180.9634720999748,2182.964388200082,2181.9584946001414,2182.9570645000786,2181.9584946001414,2182.9570645000786,2182.9570645000786,None,33.99544590013102,2186.959554699948,None,2186.959554699948,None,4,0.7290103998966515,2186.959554699948,None,2192.9604927001055,None,,,,,,,,,,,,,,,,,,,,,,,,,,,,,,,,,,,,,,,,,,1103,001,2,UA,2022_Feb_18_1342,task_complete_blocked_LC_updated,2021.2.3,239.20583636832805,
stimulus_images/ACAROSLI2.jpg,SPACE,0,,,,,0,3,3,4,,,,,,,,,,,,,,,,,,,,,,,,,,,,,,,,,,,,,,,,,,,,,,,,,,,,,,,,,,,,,,,,,,,,,,,,,,,,,,,,,,,,,,,,,,,41.99944050004706,2194.9666051999666,2196.9672596999444,2194.9666051999666,2196.9672596999444,2195.964326699963,2196.964190199971,2195.964326699963,2196.964190199971,2196.9602812000085,None,48.00004820013419,2200.9641082000453,None,2200.9641082000453,None,3,0.9995777001604438,2200.9641082000453,None,2206.964071900118,None,,,,,,,,,,,,,,,,,,,,,,,,,,,,,,,,,,,,,,,,,,1103,001,2,UA,2022_Feb_18_1342,task_complete_blocked_LC_updated,2021.2.3,239.20583636832805,
stimulus_images/AICESKAT8.jpg,SPACE,0,,,,,0,4,4,8,,,,,,,,,,,,,,,,,,,,,,,,,,,,,,,,,,,,,,,,,,,,,,,,,,,,,,,,,,,,,,,,,,,,,,,,,,,,,,,,,,,,,,,,,,,56.00622069998644,2208.985097200144,2210.9840057999827,2208.985097200144,2210.9840057999827,2209.9801243999973,2210.981071599992,2209.9801243999973,2210.981071599992,2210.981071599992,None,62.00752350012772,2214.972313400125,None,2214.972313400125,None,4,0.7905119000934064,2214.972313400125,None,2220.972415999975,None,,,,,,,,,,,,,,,,,,,,,,,,,,,,,,,,,,,,,,,,,,1103,001,2,UA,2022_Feb_18_1342,task_complete_blocked_LC_updated,2021.2.3,239.20583636832805,
stimulus_images/ABALLYAR4.jpg,SPACE,0,,,,,0,5,5,1,,,,,,,,,,,,,,,,,,,,,,,,,,,,,,,,,,,,,,,,,,,,,,,,,,,,,,,,,,,,,,,,,,,,,,,,,,,,,,,,,,,,,,,,,,,70.01279910001904,2222.986925000092,2224.9884451001417,2222.986925000092,2224.9884451001417,2223.985048600007,2224.9855339999776,2223.985048600007,2224.9855339999776,2224.9855339999776,None,76.01543610007502,2228.9799897000194,None,2228.9799897000194,None,4,1.7558798999525607,2228.9799897000194,None,2234.9780409000814,None,,,,,,,,,,,,,,,,,,,,,,,,,,,,,,,,,,,,,,,,,,1103,001,2,UA,2022_Feb_18_1342,task_complete_blocked_LC_updated,2021.2.3,239.20583636832805,
stimulus_images/ABILLTABL.jpg,SPACE,1,,,,,0,6,6,2,,,,,,,,,,,,,,,,,,,,,,,,,,,,,,,,,,,,,,,,,,,,,,,,,,,,,,,,,,,,,,,,,,,,,,,,,,,,,,,,,,,,,,,,,,,85.01706139999442,2237.9902966001537,2239.9908935001586,2237.9902966001537,2239.9908935001586,2238.9887274000794,2239.9908935001586,2238.9887274000794,2239.9908935001586,2239.987212799955,None,91.02009980008006,2243.985734200105,None,2243.985734200105,None,4,1.1094048998784274,2243.985734200105,None,2249.9839270999655,None,,,,,,,,,,,,,,,,,,,,,,,,,,,,,,,,,,,,,,,,,,1103,001,2,UA,2022_Feb_18_1342,task_complete_blocked_LC_updated,2021.2.3,239.20583636832805,
stimulus_images/Acomputerdriv.jpg,SPACE,0,,,,,0,7,7,5,,,,,,,,,,,,,,,,,,,,,,,,,,,,,,,,,,,,,,,,,,,,,,,,,,,,,,,,,,,,,,,,,,,,,,,,,,,,,,,,,,,,,,,,,,,99.02131829992868,2251.995366899995,2253.9966506001074,2251.995366899995,2253.9966506001074,2252.993580600014,2253.992407300044,2252.993580600014,2253.992407300044,2253.992407300044,None,105.02424530009739,2257.9885041001253,None,2257.9885041001253,None,3,1.0000835999380797,2257.9885041001253,None,2263.9863785000052,None,,,,,,,,,,,,,,,,,,,,,,,,,,,,,,,,,,,,,,,,,,1103,001,2,UA,2022_Feb_18_1342,task_complete_blocked_LC_updated,2021.2.3,239.20583636832805,
stimulus_images/AARMCHA25.jpg,SPACE,0,,,,,0,8,8,0,,,,,,,,,,,,,,,,,,,,,,,,,,,,,,,,,,,,,,,,,,,,,,,,,,,,,,,,,,,,,,,,,,,,,,,,,,,,,,,,,,,,,,,,,,,114.02577199996449,2266.9991144000087,2268.998312199954,2266.9991144000087,2268.998312199954,2267.9991361000575,2268.998312199954,2267.9991361000575,2268.998312199954,2268.995040900074,None,120.02919979998842,2272.9937640000135,None,2272.9937640000135,None,4,1.1670259002130479,2272.9937640000135,None,2278.9899744000286,None,,,,,,,,,,,,,,,,,,,,,,,,,,,,,,,,,,,,,,,,,,1103,001,2,UA,2022_Feb_18_1342,task_complete_blocked_LC_updated,2021.2.3,239.20583636832805,
stimulus_images/Aeasteregg14.jpg,SPACE,0,,,,,0,9,9,6,,,,,,,,,,,,,,,,,,,,,,,,,,,,,,,,,,,,,,,,,,,,,,,,,,,,,,,,,,,,,,,,,,,,,,,,,,,,,,,,,,,,,,,,,,,129.02985360007733,2281.9983171001077,2283.999060400063,2281.9983171001077,2283.999060400063,2282.9981112999376,2283.999060400063,2282.9981112999376,2283.999060400063,2283.9955454000738,None,135.03247849992476,2287.9970509000123,None,2287.9970509000123,None,4,1.2243248000741005,2287.9970509000123,None,2293.9963605999947,None,,,,,,,,,,,,,,,,,,,,,,,,,,,,,,,,,,,,,,,,,,1103,001,2,UA,2022_Feb_18_1342,task_complete_blocked_LC_updated,2021.2.3,239.20583636832805,
stimulus_images/Atelescope2.jpg,SPACE,1,,,,,,,,,0,0,0,1,,,,,,,,,,,,,,,,,,,,,,,,,,,,,,,,,,,,,,,,,,,,,,,,,,,,,,,,,,,,,,,,,,,,,,,,,,,,,,,,,,,,,,,143.04006020002998,2296.014859799994,2298.014673900092,2296.014859799994,2298.014673900092,2297.0101402001455,2298.010585100157,2297.0101402001455,2298.010585100157,2298.010585100157,None,149.03702079993673,2302.00124230003,None,2302.00124230003,None,4,0.9545207999181002,2302.00124230003,None,2307.999888099963,None,,,,,,,,,,,,,,,,,,,,,,,,,,,,,,,,,,,,,,,,,,1103,001,2,UA,2022_Feb_18_1342,task_complete_blocked_LC_updated,2021.2.3,239.20583636832805,
stimulus_images/wetsuit1.jpg,SPACE,0,,,,,,,,,0,1,1,3,,,,,,,,,,,,,,,,,,,,,,,,,,,,,,,,,,,,,,,,,,,,,,,,,,,,,,,,,,,,,,,,,,,,,,,,,,,,,,,,,,,,,,,158.03855210007168,2311.0123706001323,2313.018045200035,2311.0123706001323,2313.018045200035,2312.006311000092,2313.0065806000493,2312.006311000092,2313.0065806000493,2313.0065806000493,None,164.04109150008298,2317.0055337001104,None,2317.0055337001104,None,4,1.7123020999133587,2317.0055337001104,None,2323.004722099984,None,,,,,,,,,,,,,,,,,,,,,,,,,,,,,,,,,,,,,,,,,,1103,001,2,UA,2022_Feb_18_1342,task_complete_blocked_LC_updated,2021.2.3,239.20583636832805,
stimulus_images/A25thdec3.jpg,SPACE,0,,,,,,,,,0,2,2,4,,,,,,,,,,,,,,,,,,,,,,,,,,,,,,,,,,,,,,,,,,,,,,,,,,,,,,,,,,,,,,,,,,,,,,,,,,,,,,,,,,,,,,,171.0428697001189,2324.017716200091,2326.017429200001,2324.017716200091,2326.017429200001,2325.013926499989,2326.013310200069,2325.013926499989,2326.013310200069,2326.013310200069,None,177.04529609996825,2330.009502199944,None,2330.009502199944,None,3,0.8694953999947757,2330.009502199944,None,2336.011174000101,None,,,,,,,,,,,,,,,,,,,,,,,,,,,,,,,,,,,,,,,,,,1103,001,2,UA,2022_Feb_18_1342,task_complete_blocked_LC_updated,2021.2.3,239.20583636832805,
stimulus_images/Aroadsignin15.jpg,SPACE,1,,,,,,,,,0,3,3,0,,,,,,,,,,,,,,,,,,,,,,,,,,,,,,,,,,,,,,,,,,,,,,,,,,,,,,,,,,,,,,,,,,,,,,,,,,,,,,,,,,,,,,,185.05223609996028,2338.0208018000703,2340.0190390001517,2338.0208018000703,2340.0190390001517,2339.0186298000626,2340.0190390001517,2339.0186298000626,2340.0190390001517,2340.015763200121,None,191.05367660010234,2344.017985700164,None,2344.017985700164,None,4,1.4077651998959482,2344.017985700164,None,2350.0205546000507,None,,,,,,,,,,,,,,,,,,,,,,,,,,,,,,,,,,,,,,,,,,1103,001,2,UA,2022_Feb_18_1342,task_complete_blocked_LC_updated,2021.2.3,239.20583636832805,
stimulus_images/AALTIRE2.jpg,SPACE,0,,,,,,,,,0,4,4,5,,,,,,,,,,,,,,,,,,,,,,,,,,,,,,,,,,,,,,,,,,,,,,,,,,,,,,,,,,,,,,,,,,,,,,,,,,,,,,,,,,,,,,,198.05921530001797,2351.0265567000024,2353.0268228000496,2351.0265567000024,2353.0268228000496,2352.023503200151,2353.023638200015,2352.023503200151,2353.023638200015,2353.023638200015,None,204.06196180009283,2357.0306133001577,None,2357.0306133001577,None,4,1.1559458000119776,2357.0306133001577,None,2363.023641000036,None,,,,,,,,,,,,,,,,,,,,,,,,,,,,,,,,,,,,,,,,,,1103,001,2,UA,2022_Feb_18_1342,task_complete_blocked_LC_updated,2021.2.3,239.20583636832805,
stimulus_images/corkscrew02.jpg,SPACE,0,,,,,,,,,0,5,5,2,,,,,,,,,,,,,,,,,,,,,,,,,,,,,,,,,,,,,,,,,,,,,,,,,,,,,,,,,,,,,,,,,,,,,,,,,,,,,,,,,,,,,,,211.06372840004042,2364.030889300164,2366.0304620999377,2364.030889300164,2366.0304620999377,2365.0265434000175,2366.028062199941,2365.0265434000175,2366.028062199941,2366.0242280999664,None,217.063940100139,2370.0279685000423,None,2370.0279685000423,None,3,1.0228118000086397,2370.0279685000423,None,2376.0312171000987,None,,,,,,,,,,,,,,,,,,,,,,,,,,,,,,,,,,,,,,,,,,1103,001,2,UA,2022_Feb_18_1342,task_complete_blocked_LC_updated,2021.2.3,239.20583636832805,
stimulus_images/Aantiquerota7.jpg,SPACE,0,,,,,,,,,0,6,6,6,,,,,,,,,,,,,,,,,,,,,,,,,,,,,,,,,,,,,,,,,,,,,,,,,,,,,,,,,,,,,,,,,,,,,,,,,,,,,,,,,,,,,,,224.0707354999613,2377.0416252000723,2379.041953300126,2377.0416252000723,2379.041953300126,2378.0352505999617,2379.0377216001507,2378.0352505999617,2379.0377216001507,2379.0377216001507,None,230.0712486000266,2383.035952999955,None,2383.035952999955,None,4,1.29704670002684,2383.035952999955,None,2389.036566300085,None,,,,,,,,,,,,,,,,,,,,,,,,,,,,,,,,,,,,,,,,,,1103,001,2,UA,2022_Feb_18_1342,task_complete_blocked_LC_updated,2021.2.3,239.20583636832805,
stimulus_images/Abasketofbrea.jpg,SPACE,0,,,,,,,,,0,7,7,8,,,,,,,,,,,,,,,,,,,,,,,,,,,,,,,,,,,,,,,,,,,,,,,,,,,,,,,,,,,,,,,,,,,,,,,,,,,,,,,,,,,,,,,237.0767741999589,2390.0451493000146,2392.043236900121,2390.0451493000146,2392.043236900121,2391.0438813001383,2392.043236900121,2391.0438813001383,2392.043236900121,2392.040151500143,None,243.0789727999363,2396.044250300154,None,2396.044250300154,None,4,0.940650099888444,2396.044250300154,None,2402.0411020000465,None,,,,,,,,,,,,,,,,,,,,,,,,,,,,,,,,,,,,,,,,,,1103,001,2,UA,2022_Feb_18_1342,task_complete_blocked_LC_updated,2021.2.3,239.20583636832805,
stimulus_images/Abackpack11.jpg,SPACE,1,,,,,,,,,0,8,8,7,,,,,,,,,,,,,,,,,,,,,,,,,,,,,,,,,,,,,,,,,,,,,,,,,,,,,,,,,,,,,,,,,,,,,,,,,,,,,,,,,,,,,,,251.08011510013603,2404.047156300163,2406.0446248000953,2404.047156300163,2406.0446248000953,2405.0436434999574,2406.0423290000763,2405.0436434999574,2406.0423290000763,2406.0423290000763,None,257.081085300073,2410.045550300041,None,2410.045550300041,None,4,1.9543647998943925,2410.045550300041,None,2416.045089900028,None,,,,,,,,,,,,,,,,,,,,,,,,,,,,,,,,,,,,,,,,,,1103,001,2,UA,2022_Feb_18_1342,task_complete_blocked_LC_updated,2021.2.3,239.20583636832805,
stimulus_images/Aboots56.jpg,SPACE,0,,,,,,,,,0,9,9,9,,,,,,,,,,,,,,,,,,,,,,,,,,,,,,,,,,,,,,,,,,,,,,,,,,,,,,,,,,,,,,,,,,,,,,,,,,,,,,,,,,,,,,,265.08533399994485,2418.0529980000574,2420.0538127999753,2418.0529980000574,2420.0538127999753,2419.0489380999934,2420.050617800094,2419.0489380999934,2420.050617800094,2420.046463100007,None,271.08560959994793,2424.053909300128,None,2424.053909300128,None,4,1.1237943000160158,2424.053909300128,None,2430.05058140005,None,,,,,,,,,,,,,,,,,,,,,,,,,,,,,,,,,,,,,,,,,,1103,001,2,UA,2022_Feb_18_1342,task_complete_blocked_LC_updated,2021.2.3,239.20583636832805,
,,,X,1,,,,,,,,,,,0,0,0,0,,,,,,,,,,,,,,,,,,,,,,,,,,,,,,,,,,,,,,,,,,,,,,,,,,,,,,,,,,,,,,,,,,,,,,,,,,,,,,,,,,,,,,,,,,,,,,,,,,,,,,,,,2433.052664699964,None,2436.069894199958,2437.021196000045,None,0,2436.069894199958,2437.021196000045,2437.0178350999486,None,,,,,,,,,,,,,,,,,,,,,,,,,,,,,,,,1103,001,2,UA,2022_Feb_18_1342,task_complete_blocked_LC_updated,2021.2.3,239.20583636832805,
,,,O,2,,,,,,,,,,,0,1,1,1,,,,,,,,,,,,,,,,,,,,,,,,,,,,,,,,,,,,,,,,,,,,,,,,,,,,,,,,,,,,,,,,,,,,,,,,,,,,,,,,,,,,,,,,,,,,,,,,,,,,,,,,,,,2437.058375600027,2438.011407800019,None,0,2437.058375600027,2438.011407800019,2438.008486200124,None,,,,,,,,,,,,,,,,,,,,,,,,,,,,,,,,1103,001,2,UA,2022_Feb_18_1342,task_complete_blocked_LC_updated,2021.2.3,239.20583636832805,
,,,O,2,,,,,,,,,,,1,0,2,1,,,,,,,,,,,,,,,,,,,,,,,,,,,,,,,,,,,,,,,,,,,,,,,,,,,,,,,,,,,,,,,,,,,,,,,,,,,,,,,,,,,,,,,,,,,,,,,,,,,,,,,,,,,2438.0607465000357,2439.009456800064,2,1,2438.0607465000357,2439.009456800064,2439.0002624001354,None,0.5061137999873608,,,,,,,,,,,,,,,,,,,,,,,,,,,,,,,1103,001,2,UA,2022_Feb_18_1342,task_complete_blocked_LC_updated,2021.2.3,239.20583636832805,
,,,X,1,,,,,,,,,,,1,1,3,0,,,,,,,,,,,,,,,,,,,,,,,,,,,,,,,,,,,,,,,,,,,,,,,,,,,,,,,,,,,,,,,,,,,,,,,,,,,,,,,,,,,,,,,,,,,,,,,,,,,,,,,,,,,2439.053966100095,2440.006825499935,1,1,2439.053966100095,2440.006825499935,2440.004402199993,2439.053966100095,0.45403949986211956,,,,,,,,,,,,,,,,,,,,,,,,,,,,,,,1103,001,2,UA,2022_Feb_18_1342,task_complete_blocked_LC_updated,2021.2.3,239.20583636832805,
,,,O,2,,,,,,,,,,,2,0,4,1,,,,,,,,,,,,,,,,,,,,,,,,,,,,,,,,,,,,,,,,,,,,,,,,,,,,,,,,,,,,,,,,,,,,,,,,,,,,,,,,,,,,,,,,,,,,,,,,,,,,,,,,,,,2440.0569418000523,2441.0061055000406,2,1,2440.0569418000523,2441.0061055000406,2441.002715700073,None,0.4740780000574887,,,,,,,,,,,,,,,,,,,,,,,,,,,,,,,1103,001,2,UA,2022_Feb_18_1342,task_complete_blocked_LC_updated,2021.2.3,239.20583636832805,
,,,X,1,,,,,,,,,,,2,1,5,0,,,,,,,,,,,,,,,,,,,,,,,,,,,,,,,,,,,,,,,,,,,,,,,,,,,,,,,,,,,,,,,,,,,,,,,,,,,,,,,,,,,,,,,,,,,,,,,,,,,,,,,,,,,2441.0553365999367,2442.0041476001497,1,1,2441.0553365999367,2442.0041476001497,2442.0041476001497,2441.0553365999367,0.36571440007537603,,,,,,,,,,,,,,,,,,,,,,,,,,,,,,,1103,001,2,UA,2022_Feb_18_1342,task_complete_blocked_LC_updated,2021.2.3,239.20583636832805,
,,,X,1,,,,,,,,,,,3,0,6,0,,,,,,,,,,,,,,,,,,,,,,,,,,,,,,,,,,,,,,,,,,,,,,,,,,,,,,,,,,,,,,,,,,,,,,,,,,,,,,,,,,,,,,,,,,,,,,,,,,,,,,,,,,,2442.0606770000886,2443.0103039001115,1,1,2442.0606770000886,2443.0103039001115,2443.001930500148,None,0.587302700150758,,,,,,,,,,,,,,,,,,,,,,,,,,,,,,,1103,001,2,UA,2022_Feb_18_1342,task_complete_blocked_LC_updated,2021.2.3,239.20583636832805,
,,,O,2,,,,,,,,,,,3,1,7,1,,,,,,,,,,,,,,,,,,,,,,,,,,,,,,,,,,,,,,,,,,,,,,,,,,,,,,,,,,,,,,,,,,,,,,,,,,,,,,,,,,,,,,,,,,,,,,,,,,,,,,,,,,,2443.0547365001403,2444.0076157001313,2,1,2443.0547365001403,2444.0076157001313,2444.0042139000725,2443.0547365001403,0.45335840014740825,,,,,,,,,,,,,,,,,,,,,,,,,,,,,,,1103,001,2,UA,2022_Feb_18_1342,task_complete_blocked_LC_updated,2021.2.3,239.20583636832805,
,,,X,1,,,,,,,,,,,4,0,8,0,,,,,,,,,,,,,,,,,,,,,,,,,,,,,,,,,,,,,,,,,,,,,,,,,,,,,,,,,,,,,,,,,,,,,,,,,,,,,,,,,,,,,,,,,,,,,,,,,,,,,,,,,,,2444.0570654999465,2445.0092699001543,1,1,2444.0570654999465,2445.0092699001543,2445.006109100068,None,0.3578615998849273,,,,,,,,,,,,,,,,,,,,,,,,,,,,,,,1103,001,2,UA,2022_Feb_18_1342,task_complete_blocked_LC_updated,2021.2.3,239.20583636832805,
,,,O,2,,,,,,,,,,,4,1,9,1,,,,,,,,,,,,,,,,,,,,,,,,,,,,,,,,,,,,,,,,,,,,,,,,,,,,,,,,,,,,,,,,,,,,,,,,,,,,,,,,,,,,,,,,,,,,,,,,,,,,,,,,,,,2445.057042000117,2446.007660200121,2,1,2445.057042000117,2446.007660200121,2446.005391899962,None,0.38212370011024177,,,,,,,,,,,,,,,,,,,,,,,,,,,,,,,1103,001,2,UA,2022_Feb_18_1342,task_complete_blocked_LC_updated,2021.2.3,239.20583636832805,
,,,O,2,,,,,,,,,,,5,0,10,1,,,,,,,,,,,,,,,,,,,,,,,,,,,,,,,,,,,,,,,,,,,,,,,,,,,,,,,,,,,,,,,,,,,,,,,,,,,,,,,,,,,,,,,,,,,,,,,,,,,,,,,,,,,2446.056162199937,2447.006693500094,2,1,2446.056162199937,2447.006693500094,2447.003179300111,None,0.6045136998873204,,,,,,,,,,,,,,,,,,,,,,,,,,,,,,,1103,001,2,UA,2022_Feb_18_1342,task_complete_blocked_LC_updated,2021.2.3,239.20583636832805,
,,,X,1,,,,,,,,,,,5,1,11,0,,,,,,,,,,,,,,,,,,,,,,,,,,,,,,,,,,,,,,,,,,,,,,,,,,,,,,,,,,,,,,,,,,,,,,,,,,,,,,,,,,,,,,,,,,,,,,,,,,,,,,,,,,,2447.056432600133,2448.010230800137,1,1,2447.056432600133,2448.010230800137,2448.007053400157,None,0.6293113001156598,,,,,,,,,,,,,,,,,,,,,,,,,,,,,,,1103,001,2,UA,2022_Feb_18_1342,task_complete_blocked_LC_updated,2021.2.3,239.20583636832805,
,,,O,2,,,,,,,,,,,6,0,12,1,,,,,,,,,,,,,,,,,,,,,,,,,,,,,,,,,,,,,,,,,,,,,,,,,,,,,,,,,,,,,,,,,,,,,,,,,,,,,,,,,,,,,,,,,,,,,,,,,,,,,,,,,,,2448.0605742000043,2449.0105580000672,2,1,2448.0605742000043,2449.0105580000672,2449.0063398999628,None,0.49808140005916357,,,,,,,,,,,,,,,,,,,,,,,,,,,,,,,1103,001,2,UA,2022_Feb_18_1342,task_complete_blocked_LC_updated,2021.2.3,239.20583636832805,
,,,X,1,,,,,,,,,,,6,1,13,0,,,,,,,,,,,,,,,,,,,,,,,,,,,,,,,,,,,,,,,,,,,,,,,,,,,,,,,,,,,,,,,,,,,,,,,,,,,,,,,,,,,,,,,,,,,,,,,,,,,,,,,,,,,2449.057319100015,2450.010650200071,1,1,2449.057319100015,2450.010650200071,2450.0013093999587,None,0.6017820001579821,,,,,,,,,,,,,,,,,,,,,,,,,,,,,,,1103,001,2,UA,2022_Feb_18_1342,task_complete_blocked_LC_updated,2021.2.3,239.20583636832805,
,,,X,1,,,,,,,,,,,7,0,14,0,,,,,,,,,,,,,,,,,,,,,,,,,,,,,,,,,,,,,,,,,,,,,,,,,,,,,,,,,,,,,,,,,,,,,,,,,,,,,,,,,,,,,,,,,,,,,,,,,,,,,,,,,,,2450.054620800074,2451.0039913000073,1,1,2450.054620800074,2451.0039913000073,2451.0014273000415,2450.054620800074,0.5616939999163151,,,,,,,,,,,,,,,,,,,,,,,,,,,,,,,1103,001,2,UA,2022_Feb_18_1342,task_complete_blocked_LC_updated,2021.2.3,239.20583636832805,
,,,O,2,,,,,,,,,,,7,1,15,1,,,,,,,,,,,,,,,,,,,,,,,,,,,,,,,,,,,,,,,,,,,,,,,,,,,,,,,,,,,,,,,,,,,,,,,,,,,,,,,,,,,,,,,,,,,,,,,,,,,,,,,,,,,2451.0554643999785,2452.0061081000604,2,1,2451.0554643999785,2452.0061081000604,2452.0061081000604,2451.0554643999785,0.5983477002009749,,,,,,,,,,,,,,,,,,,,,,,,,,,,,,,1103,001,2,UA,2022_Feb_18_1342,task_complete_blocked_LC_updated,2021.2.3,239.20583636832805,
,,,O,2,,,,,,,,,,,8,0,16,1,,,,,,,,,,,,,,,,,,,,,,,,,,,,,,,,,,,,,,,,,,,,,,,,,,,,,,,,,,,,,,,,,,,,,,,,,,,,,,,,,,,,,,,,,,,,,,,,,,,,,,,,,,,2452.0568880001083,2453.0104180001654,2,1,2452.0568880001083,2453.0104180001654,2453.001501100138,None,0.6837074998766184,,,,,,,,,,,,,,,,,,,,,,,,,,,,,,,1103,001,2,UA,2022_Feb_18_1342,task_complete_blocked_LC_updated,2021.2.3,239.20583636832805,
,,,X,1,,,,,,,,,,,8,1,17,0,,,,,,,,,,,,,,,,,,,,,,,,,,,,,,,,,,,,,,,,,,,,,,,,,,,,,,,,,,,,,,,,,,,,,,,,,,,,,,,,,,,,,,,,,,,,,,,,,,,,,,,,,,,2453.057760399999,2454.01076630014,1,1,2453.057760399999,2454.01076630014,2454.0063517000526,2453.057760399999,0.47526369988918304,,,,,,,,,,,,,,,,,,,,,,,,,,,,,,,1103,001,2,UA,2022_Feb_18_1342,task_complete_blocked_LC_updated,2021.2.3,239.20583636832805,
,,,X,1,,,,,,,,,,,9,0,18,0,,,,,,,,,,,,,,,,,,,,,,,,,,,,,,,,,,,,,,,,,,,,,,,,,,,,,,,,,,,,,,,,,,,,,,,,,,,,,,,,,,,,,,,,,,,,,,,,,,,,,,,,,,,2454.0561418000143,2455.0069389001,1,1,2454.0561418000143,2455.0069389001,2455.003456100123,None,0.41474030003882945,,,,,,,,,,,,,,,,,,,,,,,,,,,,,,,1103,001,2,UA,2022_Feb_18_1342,task_complete_blocked_LC_updated,2021.2.3,239.20583636832805,
,,,O,2,,,,,,,,,,,9,1,19,1,,,,,,,,,,,,,,,,,,,,,,,,,,,,,,,,,,,,,,,,,,,,,,,,,,,,,,,,,,,,,,,,,,,,,,,,,,,,,,,,,,,,,,,,,,,,,,,,,,,,,,,,,,,2455.0590170000214,2456.009262900101,2,1,2455.0590170000214,2456.009262900101,2456.005545299966,None,0.484855700051412,,,,,,,,,,,,,,,,,,,,,,,,,,,,,,,1103,001,2,UA,2022_Feb_18_1342,task_complete_blocked_LC_updated,2021.2.3,239.20583636832805,
,,,X,1,,,,,,,,,,,10,0,20,0,,,,,,,,,,,,,,,,,,,,,,,,,,,,,,,,,,,,,,,,,,,,,,,,,,,,,,,,,,,,,,,,,,,,,,,,,,,,,,,,,,,,,,,,,,,,,,,,,,,,,,,,,,,2456.0575182000175,2457.012356800027,1,1,2456.0575182000175,2457.012356800027,2457.001408400014,None,0.5501149999909103,,,,,,,,,,,,,,,,,,,,,,,,,,,,,,,1103,001,2,UA,2022_Feb_18_1342,task_complete_blocked_LC_updated,2021.2.3,239.20583636832805,
,,,O,2,,,,,,,,,,,10,1,21,1,,,,,,,,,,,,,,,,,,,,,,,,,,,,,,,,,,,,,,,,,,,,,,,,,,,,,,,,,,,,,,,,,,,,,,,,,,,,,,,,,,,,,,,,,,,,,,,,,,,,,,,,,,,2457.053482600022,2458.006354900077,2,1,2457.053482600022,2458.006354900077,2458.002289199969,2457.053482600022,0.5741289001889527,,,,,,,,,,,,,,,,,,,,,,,,,,,,,,,1103,001,2,UA,2022_Feb_18_1342,task_complete_blocked_LC_updated,2021.2.3,239.20583636832805,
,,,X,1,,,,,,,,,,,11,0,22,0,,,,,,,,,,,,,,,,,,,,,,,,,,,,,,,,,,,,,,,,,,,,,,,,,,,,,,,,,,,,,,,,,,,,,,,,,,,,,,,,,,,,,,,,,,,,,,,,,,,,,,,,,,,2458.055599800078,2459.007377400063,1,1,2458.055599800078,2459.007377400063,2459.004688600078,2458.055599800078,0.6952060998883098,,,,,,,,,,,,,,,,,,,,,,,,,,,,,,,1103,001,2,UA,2022_Feb_18_1342,task_complete_blocked_LC_updated,2021.2.3,239.20583636832805,
,,,O,2,,,,,,,,,,,11,1,23,1,,,,,,,,,,,,,,,,,,,,,,,,,,,,,,,,,,,,,,,,,,,,,,,,,,,,,,,,,,,,,,,,,,,,,,,,,,,,,,,,,,,,,,,,,,,,,,,,,,,,,,,,,,,2459.056903799996,2460.0089486001525,2,1,2459.056903799996,2460.0089486001525,2460.0055864001624,None,0.5024717000778764,,,,,,,,,,,,,,,,,,,,,,,,,,,,,,,1103,001,2,UA,2022_Feb_18_1342,task_complete_blocked_LC_updated,2021.2.3,239.20583636832805,
,,,X,1,,,,,,,,,,,12,0,24,0,,,,,,,,,,,,,,,,,,,,,,,,,,,,,,,,,,,,,,,,,,,,,,,,,,,,,,,,,,,,,,,,,,,,,,,,,,,,,,,,,,,,,,,,,,,,,,,,,,,,,,,,,,,2460.057170300046,2461.008511699969,1,1,2460.057170300046,2461.008511699969,2461.006015199935,None,0.5985967998858541,,,,,,,,,,,,,,,,,,,,,,,,,,,,,,,1103,001,2,UA,2022_Feb_18_1342,task_complete_blocked_LC_updated,2021.2.3,239.20583636832805,
,,,O,2,,,,,,,,,,,12,1,25,1,,,,,,,,,,,,,,,,,,,,,,,,,,,,,,,,,,,,,,,,,,,,,,,,,,,,,,,,,,,,,,,,,,,,,,,,,,,,,,,,,,,,,,,,,,,,,,,,,,,,,,,,,,,2461.057734900154,2462.007587400032,2,1,2461.057734900154,2462.007587400032,2462.004916700069,None,0.4922752999700606,,,,,,,,,,,,,,,,,,,,,,,,,,,,,,,1103,001,2,UA,2022_Feb_18_1342,task_complete_blocked_LC_updated,2021.2.3,239.20583636832805,
,,,O,2,,,,,,,,,,,13,0,26,1,,,,,,,,,,,,,,,,,,,,,,,,,,,,,,,,,,,,,,,,,,,,,,,,,,,,,,,,,,,,,,,,,,,,,,,,,,,,,,,,,,,,,,,,,,,,,,,,,,,,,,,,,,,2462.0561289000325,2463.007297200151,2,1,2462.0561289000325,2463.007297200151,2463.0043842000887,None,0.43276989995501935,,,,,,,,,,,,,,,,,,,,,,,,,,,,,,,1103,001,2,UA,2022_Feb_18_1342,task_complete_blocked_LC_updated,2021.2.3,239.20583636832805,
,,,X,1,,,,,,,,,,,13,1,27,0,,,,,,,,,,,,,,,,,,,,,,,,,,,,,,,,,,,,,,,,,,,,,,,,,,,,,,,,,,,,,,,,,,,,,,,,,,,,,,,,,,,,,,,,,,,,,,,,,,,,,,,,,,,2463.057161200093,2464.0085835999344,1,1,2463.057161200093,2464.0085835999344,2464.005292300135,None,0.5324490999337286,,,,,,,,,,,,,,,,,,,,,,,,,,,,,,,1103,001,2,UA,2022_Feb_18_1342,task_complete_blocked_LC_updated,2021.2.3,239.20583636832805,
,,,X,1,,,,,,,,,,,14,0,28,0,,,,,,,,,,,,,,,,,,,,,,,,,,,,,,,,,,,,,,,,,,,,,,,,,,,,,,,,,,,,,,,,,,,,,,,,,,,,,,,,,,,,,,,,,,,,,,,,,,,,,,,,,,,2464.056189400144,2465.0044748999644,1,1,2464.056189400144,2465.0044748999644,2465.001852700021,None,0.4906391000840813,,,,,,,,,,,,,,,,,,,,,,,,,,,,,,,1103,001,2,UA,2022_Feb_18_1342,task_complete_blocked_LC_updated,2021.2.3,239.20583636832805,
,,,O,2,,,,,,,,,,,14,1,29,1,,,,,,,,,,,,,,,,,,,,,,,,,,,,,,,,,,,,,,,,,,,,,,,,,,,,,,,,,,,,,,,,,,,,,,,,,,,,,,,,,,,,,,,,,,,,,,,,,,,,,,,,,,,2465.0540756001137,2466.007206800161,2,1,2465.0540756001137,2466.007206800161,2466.0037432000972,2465.0540756001137,0.3649796999525279,,,,,,,,,,,,,,,,,,,,,,,,,,,,,,,1103,001,2,UA,2022_Feb_18_1342,task_complete_blocked_LC_updated,2021.2.3,239.20583636832805,
,,,X,1,,,,,,,,,,,15,0,30,0,,,,,,,,,,,,,,,,,,,,,,,,,,,,,,,,,,,,,,,,,,,,,,,,,,,,,,,,,,,,,,,,,,,,,,,,,,,,,,,,,,,,,,,,,,,,,,,,,,,,,,,,,,,2466.0565810999833,2467.0063204001635,1,1,2466.0565810999833,2467.0063204001635,2467.0032333000563,None,0.6693086000159383,,,,,,,,,,,,,,,,,,,,,,,,,,,,,,,1103,001,2,UA,2022_Feb_18_1342,task_complete_blocked_LC_updated,2021.2.3,239.20583636832805,
,,,O,2,,,,,,,,,,,15,1,31,1,,,,,,,,,,,,,,,,,,,,,,,,,,,,,,,,,,,,,,,,,,,,,,,,,,,,,,,,,,,,,,,,,,,,,,,,,,,,,,,,,,,,,,,,,,,,,,,,,,,,,,,,,,,2467.058504299959,2468.010566000128,2,1,2467.058504299959,2468.010566000128,2468.007392599946,None,0.3814175999723375,,,,,,,,,,,,,,,,,,,,,,,,,,,,,,,1103,001,2,UA,2022_Feb_18_1342,task_complete_blocked_LC_updated,2021.2.3,239.20583636832805,
,,,O,2,,,,,,,,,,,16,0,32,1,,,,,,,,,,,,,,,,,,,,,,,,,,,,,,,,,,,,,,,,,,,,,,,,,,,,,,,,,,,,,,,,,,,,,,,,,,,,,,,,,,,,,,,,,,,,,,,,,,,,,,,,,,,2468.056310400134,2469.005387000041,2,1,2468.056310400134,2469.005387000041,2469.002062499989,None,0.699589499970898,,,,,,,,,,,,,,,,,,,,,,,,,,,,,,,1103,001,2,UA,2022_Feb_18_1342,task_complete_blocked_LC_updated,2021.2.3,239.20583636832805,
,,,X,1,,,,,,,,,,,16,1,33,0,,,,,,,,,,,,,,,,,,,,,,,,,,,,,,,,,,,,,,,,,,,,,,,,,,,,,,,,,,,,,,,,,,,,,,,,,,,,,,,,,,,,,,,,,,,,,,,,,,,,,,,,,,,2469.0549081999343,2470.004623200046,1,1,2469.0549081999343,2470.004623200046,2470.004623200046,2469.0549081999343,0.6382114998996258,,,,,,,,,,,,,,,,,,,,,,,,,,,,,,,1103,001,2,UA,2022_Feb_18_1342,task_complete_blocked_LC_updated,2021.2.3,239.20583636832805,
,,,X,1,,,,,,,,,,,17,0,34,0,,,,,,,,,,,,,,,,,,,,,,,,,,,,,,,,,,,,,,,,,,,,,,,,,,,,,,,,,,,,,,,,,,,,,,,,,,,,,,,,,,,,,,,,,,,,,,,,,,,,,,,,,,,2470.0577128001023,2471.0111265000887,1,1,2470.0577128001023,2471.0111265000887,2471.00179010001,None,0.7312011001631618,,,,,,,,,,,,,,,,,,,,,,,,,,,,,,,1103,001,2,UA,2022_Feb_18_1342,task_complete_blocked_LC_updated,2021.2.3,239.20583636832805,
,,,O,2,,,,,,,,,,,17,1,35,1,,,,,,,,,,,,,,,,,,,,,,,,,,,,,,,,,,,,,,,,,,,,,,,,,,,,,,,,,,,,,,,,,,,,,,,,,,,,,,,,,,,,,,,,,,,,,,,,,,,,,,,,,,,2471.0555247000884,2472.0095701999962,2,1,2471.0555247000884,2472.0095701999962,2472.0063726999797,2471.0555247000884,0.8513409001752734,,,,,,,,,,,,,,,,,,,,,,,,,,,,,,,1103,001,2,UA,2022_Feb_18_1342,task_complete_blocked_LC_updated,2021.2.3,239.20583636832805,
,,,X,1,,,,,,,,,,,18,0,36,0,,,,,,,,,,,,,,,,,,,,,,,,,,,,,,,,,,,,,,,,,,,,,,,,,,,,,,,,,,,,,,,,,,,,,,,,,,,,,,,,,,,,,,,,,,,,,,,,,,,,,,,,,,,2472.057592099998,2473.007182399975,1,1,2472.057592099998,2473.007182399975,2473.0031181001104,None,0.5752886000555009,,,,,,,,,,,,,,,,,,,,,,,,,,,,,,,1103,001,2,UA,2022_Feb_18_1342,task_complete_blocked_LC_updated,2021.2.3,239.20583636832805,
,,,O,2,,,,,,,,,,,18,1,37,1,,,,,,,,,,,,,,,,,,,,,,,,,,,,,,,,,,,,,,,,,,,,,,,,,,,,,,,,,,,,,,,,,,,,,,,,,,,,,,,,,,,,,,,,,,,,,,,,,,,,,,,,,,,2473.057692100061,2474.0080444000196,2,1,2473.057692100061,2474.0080444000196,2474.0042719000485,None,0.4830073998309672,,,,,,,,,,,,,,,,,,,,,,,,,,,,,,,1103,001,2,UA,2022_Feb_18_1342,task_complete_blocked_LC_updated,2021.2.3,239.20583636832805,
,,,X,1,,,,,,,,,,,19,0,38,0,,,,,,,,,,,,,,,,,,,,,,,,,,,,,,,,,,,,,,,,,,,,,,,,,,,,,,,,,,,,,,,,,,,,,,,,,,,,,,,,,,,,,,,,,,,,,,,,,,,,,,,,,,,2474.057784100063,2475.006628100062,1,1,2474.057784100063,2475.006628100062,2475.0029678000137,None,0.4258529001381248,,,,,,,,,,,,,,,,,,,,,,,,,,,,,,,1103,001,2,UA,2022_Feb_18_1342,task_complete_blocked_LC_updated,2021.2.3,239.20583636832805,
,,,O,2,,,,,,,,,,,19,1,39,1,,,,,,,,,,,,,,,,,,,,,,,,,,,,,,,,,,,,,,,,,,,,,,,,,,,,,,,,,,,,,,,,,,,,,,,,,,,,,,,,,,,,,,,,,,,,,,,,,,,,,,,,,,,2475.055184399942,2476.007731999969,2,1,2475.055184399942,2476.007731999969,2476.0041197000537,2475.055184399942,0.3514688001014292,,,,,,,,,,,,,,,,,,,,,,,,,,,,,,,1103,001,2,UA,2022_Feb_18_1342,task_complete_blocked_LC_updated,2021.2.3,239.20583636832805,
,,,X,1,,,,,,,,,,,20,0,40,0,,,,,,,,,,,,,,,,,,,,,,,,,,,,,,,,,,,,,,,,,,,,,,,,,,,,,,,,,,,,,,,,,,,,,,,,,,,,,,,,,,,,,,,,,,,,,,,,,,,,,,,,,,,2476.0571419000626,2477.006186899962,1,1,2476.0571419000626,2477.006186899962,2477.0030926000327,None,0.4505368999671191,,,,,,,,,,,,,,,,,,,,,,,,,,,,,,,1103,001,2,UA,2022_Feb_18_1342,task_complete_blocked_LC_updated,2021.2.3,239.20583636832805,
,,,O,2,,,,,,,,,,,20,1,41,1,,,,,,,,,,,,,,,,,,,,,,,,,,,,,,,,,,,,,,,,,,,,,,,,,,,,,,,,,,,,,,,,,,,,,,,,,,,,,,,,,,,,,,,,,,,,,,,,,,,,,,,,,,,2477.054758399958,2478.0072837001644,2,1,2477.054758399958,2478.0072837001644,2478.0048658000305,2477.054758399958,0.4679249001201242,,,,,,,,,,,,,,,,,,,,,,,,,,,,,,,1103,001,2,UA,2022_Feb_18_1342,task_complete_blocked_LC_updated,2021.2.3,239.20583636832805,
,,,O,2,,,,,,,,,,,21,0,42,1,,,,,,,,,,,,,,,,,,,,,,,,,,,,,,,,,,,,,,,,,,,,,,,,,,,,,,,,,,,,,,,,,,,,,,,,,,,,,,,,,,,,,,,,,,,,,,,,,,,,,,,,,,,2478.056245200103,2479.0055291999597,2,1,2478.056245200103,2479.0055291999597,2479.002254199935,None,0.46164159988984466,,,,,,,,,,,,,,,,,,,,,,,,,,,,,,,1103,001,2,UA,2022_Feb_18_1342,task_complete_blocked_LC_updated,2021.2.3,239.20583636832805,
,,,X,1,,,,,,,,,,,21,1,43,0,,,,,,,,,,,,,,,,,,,,,,,,,,,,,,,,,,,,,,,,,,,,,,,,,,,,,,,,,,,,,,,,,,,,,,,,,,,,,,,,,,,,,,,,,,,,,,,,,,,,,,,,,,,2479.0556638001,2480.007530400064,1,1,2479.0556638001,2480.007530400064,2480.005004200153,2479.0556638001,0.4674968998879194,,,,,,,,,,,,,,,,,,,,,,,,,,,,,,,1103,001,2,UA,2022_Feb_18_1342,task_complete_blocked_LC_updated,2021.2.3,239.20583636832805,
,,,O,2,,,,,,,,,,,22,0,44,1,,,,,,,,,,,,,,,,,,,,,,,,,,,,,,,,,,,,,,,,,,,,,,,,,,,,,,,,,,,,,,,,,,,,,,,,,,,,,,,,,,,,,,,,,,,,,,,,,,,,,,,,,,,2480.0676146000624,2481.0202872999944,2,1,2480.0676146000624,2481.0202872999944,2481.010752600152,None,0.3863476999104023,,,,,,,,,,,,,,,,,,,,,,,,,,,,,,,1103,001,2,UA,2022_Feb_18_1342,task_complete_blocked_LC_updated,2021.2.3,239.20583636832805,
,,,X,1,,,,,,,,,,,22,1,45,0,,,,,,,,,,,,,,,,,,,,,,,,,,,,,,,,,,,,,,,,,,,,,,,,,,,,,,,,,,,,,,,,,,,,,,,,,,,,,,,,,,,,,,,,,,,,,,,,,,,,,,,,,,,2481.057872200152,2482.0088096000254,1,1,2481.057872200152,2482.0088096000254,2482.0052994000725,None,0.7157258000224829,,,,,,,,,,,,,,,,,,,,,,,,,,,,,,,1103,001,2,UA,2022_Feb_18_1342,task_complete_blocked_LC_updated,2021.2.3,239.20583636832805,
,,,O,2,,,,,,,,,,,23,0,46,1,,,,,,,,,,,,,,,,,,,,,,,,,,,,,,,,,,,,,,,,,,,,,,,,,,,,,,,,,,,,,,,,,,,,,,,,,,,,,,,,,,,,,,,,,,,,,,,,,,,,,,,,,,,2482.057196700014,2483.010612500133,2,1,2482.057196700014,2483.010612500133,2483.0013685000595,None,0.44592130021192133,,,,,,,,,,,,,,,,,,,,,,,,,,,,,,,1103,001,2,UA,2022_Feb_18_1342,task_complete_blocked_LC_updated,2021.2.3,239.20583636832805,
,,,X,1,,,,,,,,,,,23,1,47,0,,,,,,,,,,,,,,,,,,,,,,,,,,,,,,,,,,,,,,,,,,,,,,,,,,,,,,,,,,,,,,,,,,,,,,,,,,,,,,,,,,,,,,,,,,,,,,,,,,,,,,,,,,,2483.055298099993,2484.0078704000916,1,1,2483.055298099993,2484.0078704000916,2484.004470300162,2483.055298099993,0.584677099948749,,,,,,,,,,,,,,,,,,,,,,,,,,,,,,,1103,001,2,UA,2022_Feb_18_1342,task_complete_blocked_LC_updated,2021.2.3,239.20583636832805,
,,,X,1,,,,,,,,,,,24,0,48,0,,,,,,,,,,,,,,,,,,,,,,,,,,,,,,,,,,,,,,,,,,,,,,,,,,,,,,,,,,,,,,,,,,,,,,,,,,,,,,,,,,,,,,,,,,,,,,,,,,,,,,,,,,,2484.0567493001,2485.008074300131,1,1,2484.0567493001,2485.008074300131,2485.0045005001593,None,0.5351076000370085,,,,,,,,,,,,,,,,,,,,,,,,,,,,,,,1103,001,2,UA,2022_Feb_18_1342,task_complete_blocked_LC_updated,2021.2.3,239.20583636832805,
,,,O,2,,,,,,,,,,,24,1,49,1,,,,,,,,,,,,,,,,,,,,,,,,,,,,,,,,,,,,,,,,,,,,,,,,,,,,,,,,,,,,,,,,,,,,,,,,,,,,,,,,,,,,,,,,,,,,,,,,,,,,,,,,,,,2485.0580992000178,2486.0095069000963,2,1,2485.0580992000178,2486.0095069000963,2486.00599840004,None,0.4359725001268089,,,,,,,,,,,,,,,,,,,,,,,,,,,,,,,1103,001,2,UA,2022_Feb_18_1342,task_complete_blocked_LC_updated,2021.2.3,239.20583636832805,
,,,O,2,,,,,,,,,,,25,0,50,1,,,,,,,,,,,,,,,,,,,,,,,,,,,,,,,,,,,,,,,,,,,,,,,,,,,,,,,,,,,,,,,,,,,,,,,,,,,,,,,,,,,,,,,,,,,,,,,,,,,,,,,,,,,2486.0569992000237,2487.00781300012,2,1,2486.0569992000237,2487.00781300012,2487.004944200162,None,0.36741159996017814,,,,,,,,,,,,,,,,,,,,,,,,,,,,,,,1103,001,2,UA,2022_Feb_18_1342,task_complete_blocked_LC_updated,2021.2.3,239.20583636832805,
,,,X,1,,,,,,,,,,,25,1,51,0,,,,,,,,,,,,,,,,,,,,,,,,,,,,,,,,,,,,,,,,,,,,,,,,,,,,,,,,,,,,,,,,,,,,,,,,,,,,,,,,,,,,,,,,,,,,,,,,,,,,,,,,,,,2487.0590105000883,2488.011072800029,1,1,2487.0590105000883,2488.011072800029,2488.007767000003,None,0.49006330012343824,,,,,,,,,,,,,,,,,,,,,,,,,,,,,,,1103,001,2,UA,2022_Feb_18_1342,task_complete_blocked_LC_updated,2021.2.3,239.20583636832805,
,,,X,1,,,,,,,,,,,26,0,52,0,,,,,,,,,,,,,,,,,,,,,,,,,,,,,,,,,,,,,,,,,,,,,,,,,,,,,,,,,,,,,,,,,,,,,,,,,,,,,,,,,,,,,,,,,,,,,,,,,,,,,,,,,,,2488.0564208000433,2489.007722800132,1,1,2488.0564208000433,2489.007722800132,2489.0043651000597,None,0.4118254999630153,,,,,,,,,,,,,,,,,,,,,,,,,,,,,,,1103,001,2,UA,2022_Feb_18_1342,task_complete_blocked_LC_updated,2021.2.3,239.20583636832805,
,,,O,2,,,,,,,,,,,26,1,53,1,,,,,,,,,,,,,,,,,,,,,,,,,,,,,,,,,,,,,,,,,,,,,,,,,,,,,,,,,,,,,,,,,,,,,,,,,,,,,,,,,,,,,,,,,,,,,,,,,,,,,,,,,,,2489.057479900075,2490.008717100136,2,1,2489.057479900075,2490.008717100136,2490.0059983001556,None,0.36440579988993704,,,,,,,,,,,,,,,,,,,,,,,,,,,,,,,1103,001,2,UA,2022_Feb_18_1342,task_complete_blocked_LC_updated,2021.2.3,239.20583636832805,
,,,O,2,,,,,,,,,,,27,0,54,1,,,,,,,,,,,,,,,,,,,,,,,,,,,,,,,,,,,,,,,,,,,,,,,,,,,,,,,,,,,,,,,,,,,,,,,,,,,,,,,,,,,,,,,,,,,,,,,,,,,,,,,,,,,2490.0580647001043,2491.011892599985,2,1,2490.0580647001043,2491.011892599985,2491.0028997999616,None,0.5466744999866933,,,,,,,,,,,,,,,,,,,,,,,,,,,,,,,1103,001,2,UA,2022_Feb_18_1342,task_complete_blocked_LC_updated,2021.2.3,239.20583636832805,
,,,X,1,,,,,,,,,,,27,1,55,0,,,,,,,,,,,,,,,,,,,,,,,,,,,,,,,,,,,,,,,,,,,,,,,,,,,,,,,,,,,,,,,,,,,,,,,,,,,,,,,,,,,,,,,,,,,,,,,,,,,,,,,,,,,2491.0556208000053,2492.0088424000423,1,1,2491.0556208000053,2492.0088424000423,2492.006113199983,2491.0556208000053,0.575058399932459,,,,,,,,,,,,,,,,,,,,,,,,,,,,,,,1103,001,2,UA,2022_Feb_18_1342,task_complete_blocked_LC_updated,2021.2.3,239.20583636832805,
,,,X,1,,,,,,,,,,,28,0,56,0,,,,,,,,,,,,,,,,,,,,,,,,,,,,,,,,,,,,,,,,,,,,,,,,,,,,,,,,,,,,,,,,,,,,,,,,,,,,,,,,,,,,,,,,,,,,,,,,,,,,,,,,,,,2492.056432900019,2493.012301400071,1,1,2492.056432900019,2493.012301400071,2493.0013123999815,None,0.8251902998890728,,,,,,,,,,,,,,,,,,,,,,,,,,,,,,,1103,001,2,UA,2022_Feb_18_1342,task_complete_blocked_LC_updated,2021.2.3,239.20583636832805,
,,,O,2,,,,,,,,,,,28,1,57,1,,,,,,,,,,,,,,,,,,,,,,,,,,,,,,,,,,,,,,,,,,,,,,,,,,,,,,,,,,,,,,,,,,,,,,,,,,,,,,,,,,,,,,,,,,,,,,,,,,,,,,,,,,,2493.054232600145,2494.003169900039,2,1,2493.054232600145,2494.003169900039,2494.003169900039,2493.054232600145,0.5290586000774056,,,,,,,,,,,,,,,,,,,,,,,,,,,,,,,1103,001,2,UA,2022_Feb_18_1342,task_complete_blocked_LC_updated,2021.2.3,239.20583636832805,
,,,O,2,,,,,,,,,,,29,0,58,1,,,,,,,,,,,,,,,,,,,,,,,,,,,,,,,,,,,,,,,,,,,,,,,,,,,,,,,,,,,,,,,,,,,,,,,,,,,,,,,,,,,,,,,,,,,,,,,,,,,,,,,,,,,2494.054279800039,2495.0066548001487,2,1,2494.054279800039,2495.0066548001487,2495.0033168999944,2494.054279800039,0.4616357001941651,,,,,,,,,,,,,,,,,,,,,,,,,,,,,,,1103,001,2,UA,2022_Feb_18_1342,task_complete_blocked_LC_updated,2021.2.3,239.20583636832805,
,,,X,1,,,,,,,,,,,29,1,59,0,,,,,,,,,,,,,,,,,,,,,,,,,,,,,,,,,,,,,,,,,,,,,,,,,,,,,,,,,,,,,,,,,,,,,,,,,,,,,,,,,,,,,,,,,,,,,,,,,,,,,,,,,,,2495.0538753999863,2496.0023847999983,1,1,2495.0538753999863,2496.0023847999983,2496.0023847999983,2495.0538753999863,0.6419973000884056,,,,,,,,,,,,,,,,,,,,,,,,,,,,,,,1103,001,2,UA,2022_Feb_18_1342,task_complete_blocked_LC_updated,2021.2.3,239.20583636832805,
,,,,,,,,,,,,,,,,,,,,,,,,,,,,,,,,,,,,,,,,,,,,,,,,,,,,,,,,,,,,,,,,,,,,,,,,,,,,,,,,,,,,,,,,,,,,,,,,,,,,,,,,,,,,,,,,,,,,,,,,,,,,,,,,,,,,,,2496.055376100121,None,space,32.239116800017655,2501.0565240001306,None,,,,,,,,,,,,,,,,,,,,,,,,,1103,001,2,UA,2022_Feb_18_1342,task_complete_blocked_LC_updated,2021.2.3,239.20583636832805,
,,,,,,,,,,,,,,,,,,,,,,,,,,,,,,,,,,,,,,,,,,,,,,,,,,,,,,,,,,,,,,,,,,,,,,,,,,,,,,,,,,,,,,,,,,,,,,,2533.3032430000603,None,5,10.161864300025627,2533.3032430000603,None,,,,,,,,,,,,,,,,,,,,,,,,,,,,,,,,,,,,,,,,2501.0565240001306,None,,,,,,,,,,,,,,,,,,,,,,,1103,001,2,UA,2022_Feb_18_1342,task_complete_blocked_LC_updated,2021.2.3,239.20583636832805,
stimulus_images/ADRYWOOD.jpg,TIME,0,,,,,,,,,,,,,,,,,0,0,0,9,,,,,,,,,,,,,,,,,,,,,,,,,,,,,,,,,,,,,,,,,,,,,,,,,,,,,,,,,,,,,,,,,,,,,,,,,,,,,,,3.100140020251274e-06,2543.4984147001524,2545.498447699938,2543.4984147001524,2545.498447699938,2544.4904746999964,2545.490510500036,2544.4904746999964,2545.490510500036,2545.490510500036,None,5.984264200087637,2549.473496600054,None,2549.473496600054,None,3,1.5433668999467045,2549.473496600054,None,2555.4761394001544,None,,,,,,,,,,,,,,,,,,,,,,,,,,,,,,,,,,,,,,,,,,1103,001,2,UA,2022_Feb_18_1342,task_complete_blocked_LC_updated,2021.2.3,239.20583636832805,
stimulus_images/ABALLBEAR.jpg,TIME,0,,,,,,,,,,,,,,,,,0,1,1,4,,,,,,,,,,,,,,,,,,,,,,,,,,,,,,,,,,,,,,,,,,,,,,,,,,,,,,,,,,,,,,,,,,,,,,,,,,,,,,,13.989974900148809,2557.490379600087,2559.488662800053,2557.490379600087,2559.488662800053,2558.4862290001474,2559.488662800053,2558.4862290001474,2559.488662800053,2559.488662800053,None,19.992583299987018,2563.48232239997,None,2563.48232239997,None,3,1.2445765999145806,2563.48232239997,None,2569.4824165001046,None,,,,,,,,,,,,,,,,,,,,,,,,,,,,,,,,,,,,,,,,,,1103,001,2,UA,2022_Feb_18_1342,task_complete_blocked_LC_updated,2021.2.3,239.20583636832805,
stimulus_images/A_coin.jpg,TIME,0,,,,,,,,,,,,,,,,,0,2,2,0,,,,,,,,,,,,,,,,,,,,,,,,,,,,,,,,,,,,,,,,,,,,,,,,,,,,,,,,,,,,,,,,,,,,,,,,,,,,,,,27.994156199973077,2571.4929458000697,2573.495212299982,2571.4929458000697,2573.495212299982,2572.4916193999816,2573.492256900063,2572.4916193999816,2573.492256900063,2573.492256900063,None,33.99675980000757,2577.4864642000757,None,2577.4864642000757,None,4,1.0774022000841796,2577.4864642000757,None,2583.48783680005,None,,,,,,,,,,,,,,,,,,,,,,,,,,,,,,,,,,,,,,,,,,1103,001,2,UA,2022_Feb_18_1342,task_complete_blocked_LC_updated,2021.2.3,239.20583636832805,
stimulus_images/Acocktailumb4.jpg,TIME,0,,,,,,,,,,,,,,,,,0,3,3,8,,,,,,,,,,,,,,,,,,,,,,,,,,,,,,,,,,,,,,,,,,,,,,,,,,,,,,,,,,,,,,,,,,,,,,,,,,,,,,,42.00279520009644,2585.4977643999737,2587.5005510000046,2585.4977643999737,2587.5005510000046,2586.494546700036,2587.5005510000046,2586.494546700036,2587.5005510000046,2587.5005510000046,None,48.00518660014495,2591.494890199974,None,2591.494890199974,None,4,0.48894679988734424,2591.494890199974,None,2597.506270200014,None,,,,,,,,,,,,,,,,,,,,,,,,,,,,,,,,,,,,,,,,,,1103,001,2,UA,2022_Feb_18_1342,task_complete_blocked_LC_updated,2021.2.3,239.20583636832805,
stimulus_images/Aammonitefo14.jpg,TIME,1,,,,,,,,,,,,,,,,,0,4,4,2,,,,,,,,,,,,,,,,,,,,,,,,,,,,,,,,,,,,,,,,,,,,,,,,,,,,,,,,,,,,,,,,,,,,,,,,,,,,,,,56.01940200012177,2599.518825400155,2601.51836740016,2599.518825400155,2601.51836740016,2600.5208114001434,2601.5212125999387,2600.5208114001434,2601.5212125999387,2601.514701799955,None,62.02204980002716,2605.5113462000154,None,2605.5113462000154,None,3,1.1344813001342118,2605.5113462000154,None,2611.5159732999746,None,,,,,,,,,,,,,,,,,,,,,,,,,,,,,,,,,,,,,,,,,,1103,001,2,UA,2022_Feb_18_1342,task_complete_blocked_LC_updated,2021.2.3,239.20583636832805,
stimulus_images/A56THUND4.jpg,TIME,0,,,,,,,,,,,,,,,,,0,5,5,1,,,,,,,,,,,,,,,,,,,,,,,,,,,,,,,,,,,,,,,,,,,,,,,,,,,,,,,,,,,,,,,,,,,,,,,,,,,,,,,69.02792420005426,2612.5275890999474,2614.5261713000946,2612.5275890999474,2614.5261713000946,2613.5204529999755,2614.5230040999595,2613.5204529999755,2614.5230040999595,2614.5191649000626,None,75.03065040009096,2618.5201483001,None,2618.5201483001,None,4,2.0026016000192612,2618.5201483001,None,2624.5216445999686,None,,,,,,,,,,,,,,,,,,,,,,,,,,,,,,,,,,,,,,,,,,1103,001,2,UA,2022_Feb_18_1342,task_complete_blocked_LC_updated,2021.2.3,239.20583636832805,
stimulus_images/ACANDLE30.jpg,TIME,0,,,,,,,,,,,,,,,,,0,6,6,7,,,,,,,,,,,,,,,,,,,,,,,,,,,,,,,,,,,,,,,,,,,,,,,,,,,,,,,,,,,,,,,,,,,,,,,,,,,,,,,84.03580339998007,2627.5284200001042,2629.528244300047,2627.5284200001042,2629.528244300047,2628.525144400075,2629.528244300047,2628.525144400075,2629.528244300047,2629.524973300053,None,90.0365542001091,2633.5257258999627,None,2633.5257258999627,None,2,1.3969511000905186,2633.5257258999627,None,2639.530199300032,None,,,,,,,,,,,,,,,,,,,,,,,,,,,,,,,,,,,,,,,,,,1103,001,2,UA,2022_Feb_18_1342,task_complete_blocked_LC_updated,2021.2.3,239.20583636832805,
stimulus_images/Abeaver.jpg,TIME,0,,,,,,,,,,,,,,,,,0,7,7,5,,,,,,,,,,,,,,,,,,,,,,,,,,,,,,,,,,,,,,,,,,,,,,,,,,,,,,,,,,,,,,,,,,,,,,,,,,,,,,,99.0447003999725,2642.5370863000862,2644.539267500164,2642.5370863000862,2644.539267500164,2643.533038499998,2644.534031599993,2643.533038499998,2644.534031599993,2644.534031599993,None,105.04792540008202,2648.5375576999504,None,2648.5375576999504,None,3,0.5191850999835879,2648.5375576999504,None,2654.5365426000208,None,,,,,,,,,,,,,,,,,,,,,,,,,,,,,,,,,,,,,,,,,,1103,001,2,UA,2022_Feb_18_1342,task_complete_blocked_LC_updated,2021.2.3,239.20583636832805,
stimulus_images/AARCCHAR2.jpg,TIME,0,,,,,,,,,,,,,,,,,0,8,8,3,,,,,,,,,,,,,,,,,,,,,,,,,,,,,,,,,,,,,,,,,,,,,,,,,,,,,,,,,,,,,,,,,,,,,,,,,,,,,,,112.04901490011252,2655.5476909000427,2657.5503436001018,2655.5476909000427,2657.5503436001018,2656.5368993000593,2657.542272400111,2656.5368993000593,2657.542272400111,2657.542272400111,None,118.05143580003642,2661.5408042999916,None,2661.5408042999916,None,1,0.7588533998932689,2661.5408042999916,None,2667.541483900044,None,,,,,,,,,,,,,,,,,,,,,,,,,,,,,,,,,,,,,,,,,,1103,001,2,UA,2022_Feb_18_1342,task_complete_blocked_LC_updated,2021.2.3,239.20583636832805,
stimulus_images/Abottleofbat2.jpg,TIME,1,,,,,,,,,,,,,,,,,0,9,9,6,,,,,,,,,,,,,,,,,,,,,,,,,,,,,,,,,,,,,,,,,,,,,,,,,,,,,,,,,,,,,,,,,,,,,,,,,,,,,,,127.05340330000035,2670.553134500049,2672.553392500151,2670.553134500049,2672.553392500151,2671.5498252001125,2672.550083700102,2671.5498252001125,2672.550083700102,2672.550083700102,None,133.0556968001183,2676.545078899944,None,2676.545078899944,None,2,0.5281500001437962,2676.545078899944,None,2682.5551728000864,None,,,,,,,,,,,,,,,,,,,,,,,,,,,,,,,,,,,,,,,,,,1103,001,2,UA,2022_Feb_18_1342,task_complete_blocked_LC_updated,2021.2.3,239.20583636832805,
stimulus_images/AMUSISTA2.jpg,TIME,0,,,,,,,,,,,,,,,,,,,,,0,0,0,2,,,,,,,,,,,,,,,,,,,,,,,,,,,,,,,,,,,,,,,,,,,,,,,,,,,,,,,,,,,,,,,,,,,,,,,,,,,142.07648720010184,2685.57623840007,2687.5768079999834,2685.57623840007,2687.5768079999834,2686.5710315001197,2687.5741332999896,2686.5710315001197,2687.5741332999896,2687.5741332999896,None,148.07277059997432,2691.5623906000983,None,2691.5623906000983,None,3,0.9093106999062002,2691.5623906000983,None,2697.5598395001143,None,,,,,,,,,,,,,,,,,,,,,,,,,,,,,,,,,,,,,,,,,,1103,001,2,UA,2022_Feb_18_1342,task_complete_blocked_LC_updated,2021.2.3,239.20583636832805,
stimulus_images/Aribbon21.jpg,TIME,0,,,,,,,,,,,,,,,,,,,,,0,1,1,3,,,,,,,,,,,,,,,,,,,,,,,,,,,,,,,,,,,,,,,,,,,,,,,,,,,,,,,,,,,,,,,,,,,,,,,,,,,156.07428560010158,2699.5724452000577,2701.572118600132,2699.5724452000577,2701.572118600132,2700.5703247999772,2701.572118600132,2700.5703247999772,2701.572118600132,2701.5696413000114,None,162.07685880013742,2705.5662349001504,None,2705.5662349001504,None,2,0.8895448001567274,2705.5662349001504,None,2711.5634509001393,None,,,,,,,,,,,,,,,,,,,,,,,,,,,,,,,,,,,,,,,,,,1103,001,2,UA,2022_Feb_18_1342,task_complete_blocked_LC_updated,2021.2.3,239.20583636832805,
stimulus_images/A_flower.jpg,TIME,0,,,,,,,,,,,,,,,,,,,,,0,2,2,7,,,,,,,,,,,,,,,,,,,,,,,,,,,,,,,,,,,,,,,,,,,,,,,,,,,,,,,,,,,,,,,,,,,,,,,,,,,171.07499020011164,2714.574767900165,2716.5772069001105,2714.574767900165,2716.5772069001105,2715.571262500016,2716.5731127001345,2715.571262500016,2716.5731127001345,2716.5731127001345,None,177.076878500171,2720.5662032000255,None,2720.5662032000255,None,3,1.279651999939233,2720.5662032000255,None,2726.5645896000788,None,,,,,,,,,,,,,,,,,,,,,,,,,,,,,,,,,,,,,,,,,,1103,001,2,UA,2022_Feb_18_1342,task_complete_blocked_LC_updated,2021.2.3,239.20583636832805,
stimulus_images/beanbagchair.jpg,TIME,0,,,,,,,,,,,,,,,,,,,,,0,3,3,5,,,,,,,,,,,,,,,,,,,,,,,,,,,,,,,,,,,,,,,,,,,,,,,,,,,,,,,,,,,,,,,,,,,,,,,,,,,184.07863759994507,2727.5778379000258,2729.5803527000826,2727.5778379000258,2729.5803527000826,2728.5790421001147,2729.5803527000826,2728.5790421001147,2729.5803527000826,2729.577401000075,None,190.08117699995637,2733.570402499987,None,2733.570402499987,None,3,0.3827504999935627,2733.570402499987,None,2739.5731061000843,None,,,,,,,,,,,,,,,,,,,,,,,,,,,,,,,,,,,,,,,,,,1103,001,2,UA,2022_Feb_18_1342,task_complete_blocked_LC_updated,2021.2.3,239.20583636832805,
stimulus_images/AHIGCHAIR.jpg,TIME,0,,,,,,,,,,,,,,,,,,,,,0,4,4,1,,,,,,,,,,,,,,,,,,,,,,,,,,,,,,,,,,,,,,,,,,,,,,,,,,,,,,,,,,,,,,,,,,,,,,,,,,,199.08605449995957,2742.579434500076,2744.5789534000214,2742.579434500076,2744.5789534000214,2743.575017800089,2744.575595299946,2743.575017800089,2744.575595299946,2744.575595299946,None,205.0869436999783,2748.5761029999703,None,2748.5761029999703,None,3,1.145594900008291,2748.5761029999703,None,2754.5773608000018,None,,,,,,,,,,,,,,,,,,,,,,,,,,,,,,,,,,,,,,,,,,1103,001,2,UA,2022_Feb_18_1342,task_complete_blocked_LC_updated,2021.2.3,239.20583636832805,
stimulus_images/AGLASSFL4.jpg,TIME,1,,,,,,,,,,,,,,,,,,,,,0,5,5,0,,,,,,,,,,,,,,,,,,,,,,,,,,,,,,,,,,,,,,,,,,,,,,,,,,,,,,,,,,,,,,,,,,,,,,,,,,,212.09062359994277,2755.5828809000086,2757.5876656000037,2755.5828809000086,2757.5876656000037,2756.580500500044,2757.580038800137,2756.580500500044,2757.580038800137,2757.576206400059,None,218.09162580012344,2761.5806098999456,None,2761.5806098999456,None,4,1.0944578000344336,2761.5806098999456,None,2767.5811733000446,None,,,,,,,,,,,,,,,,,,,,,,,,,,,,,,,,,,,,,,,,,,1103,001,2,UA,2022_Feb_18_1342,task_complete_blocked_LC_updated,2021.2.3,239.20583636832805,
stimulus_images/Astereo30.jpg,TIME,1,,,,,,,,,,,,,,,,,,,,,0,6,6,4,,,,,,,,,,,,,,,,,,,,,,,,,,,,,,,,,,,,,,,,,,,,,,,,,,,,,,,,,,,,,,,,,,,,,,,,,,,225.09548080014065,2768.5957301999442,2770.596961400006,2768.5957301999442,2770.596961400006,2769.588484399952,2770.590176000027,2769.588484399952,2770.590176000027,2770.590176000027,None,231.09814160014503,2774.587804700015,None,2774.587804700015,None,2,0.6713646000716835,2774.587804700015,None,2780.5857698000036,None,,,,,,,,,,,,,,,,,,,,,,,,,,,,,,,,,,,,,,,,,,1103,001,2,UA,2022_Feb_18_1342,task_complete_blocked_LC_updated,2021.2.3,239.20583636832805,
stimulus_images/weddingdress.jpg,TIME,0,,,,,,,,,,,,,,,,,,,,,0,7,7,6,,,,,,,,,,,,,,,,,,,,,,,,,,,,,,,,,,,,,,,,,,,,,,,,,,,,,,,,,,,,,,,,,,,,,,,,,,,238.09800280001946,2781.598053399939,2783.601444200147,2781.598053399939,2783.601444200147,2782.5916887000203,2783.595816400135,2782.5916887000203,2783.595816400135,2783.595816400135,None,244.09849440003745,2787.588859300129,None,2787.588859300129,None,3,0.5359734001103789,2787.588859300129,None,2793.593167999992,None,,,,,,,,,,,,,,,,,,,,,,,,,,,,,,,,,,,,,,,,,,1103,001,2,UA,2022_Feb_18_1342,task_complete_blocked_LC_updated,2021.2.3,239.20583636832805,
stimulus_images/Aancientston3.jpg,TIME,0,,,,,,,,,,,,,,,,,,,,,0,8,8,9,,,,,,,,,,,,,,,,,,,,,,,,,,,,,,,,,,,,,,,,,,,,,,,,,,,,,,,,,,,,,,,,,,,,,,,,,,,252.10827940003946,2795.600851000054,2797.5991094000638,2795.600851000054,2797.5991094000638,2796.596811800031,2797.5991094000638,2796.596811800031,2797.5991094000638,2797.5959628000855,None,258.1082725999877,2801.597266700119,None,2801.597266700119,None,1,0.5874071000143886,2801.597266700119,None,2807.60164680006,None,,,,,,,,,,,,,,,,,,,,,,,,,,,,,,,,,,,,,,,,,,1103,001,2,UA,2022_Feb_18_1342,task_complete_blocked_LC_updated,2021.2.3,239.20583636832805,
stimulus_images/AABSTRACT.jpg,TIME,1,,,,,,,,,,,,,,,,,,,,,0,9,9,8,,,,,,,,,,,,,,,,,,,,,,,,,,,,,,,,,,,,,,,,,,,,,,,,,,,,,,,,,,,,,,,,,,,,,,,,,,,266.1165771000087,2809.6152753999922,2811.6169323001523,2809.6152753999922,2811.6169323001523,2810.613477200037,2811.613016200019,2810.613477200037,2811.613016200019,2811.613016200019,None,272.1194615000859,2815.6106600000057,None,2815.6106600000057,None,2,0.7642392001580447,2815.6106600000057,None,2821.606463900069,None,,,,,,,,,,,,,,,,,,,,,,,,,,,,,,,,,,,,,,,,,,1103,001,2,UA,2022_Feb_18_1342,task_complete_blocked_LC_updated,2021.2.3,239.20583636832805,
,,,O,2,,,,,,,,,,,,,,,,,,,,,,,0,0,0,1,,,,,,,,,,,,,,,,,,,,,,,,,,,,,,,,,,,,,,,,,,,,,,,,,,,,,,,,,,,,,,,,,,,,,,,,,,,,,,,,,,,,,,,,,,,,,2823.6063519001473,None,2826.6140630000737,2827.562870300142,2,1,2826.6140630000737,2827.562870300142,2827.559222900076,None,0.935883600031957,,,,,,,,,,,,,,,,,,,,,,,,,,,,,,,1103,001,2,UA,2022_Feb_18_1342,task_complete_blocked_LC_updated,2021.2.3,239.20583636832805,
,,,X,1,,,,,,,,,,,,,,,,,,,,,,,0,1,1,0,,,,,,,,,,,,,,,,,,,,,,,,,,,,,,,,,,,,,,,,,,,,,,,,,,,,,,,,,,,,,,,,,,,,,,,,,,,,,,,,,,,,,,,,,,,,,,,2827.6159769999795,2828.5682169001084,1,1,2827.6159769999795,2828.5682169001084,2828.565875499975,None,0.6145820000674576,,,,,,,,,,,,,,,,,,,,,,,,,,,,,,,1103,001,2,UA,2022_Feb_18_1342,task_complete_blocked_LC_updated,2021.2.3,239.20583636832805,
,,,O,2,,,,,,,,,,,,,,,,,,,,,,,1,0,2,1,,,,,,,,,,,,,,,,,,,,,,,,,,,,,,,,,,,,,,,,,,,,,,,,,,,,,,,,,,,,,,,,,,,,,,,,,,,,,,,,,,,,,,,,,,,,,,,2828.6113789000083,2829.5643701001536,2,1,2828.6113789000083,2829.5643701001536,2829.5610388000496,None,0.4492978001944721,,,,,,,,,,,,,,,,,,,,,,,,,,,,,,,1103,001,2,UA,2022_Feb_18_1342,task_complete_blocked_LC_updated,2021.2.3,239.20583636832805,
,,,X,1,,,,,,,,,,,,,,,,,,,,,,,1,1,3,0,,,,,,,,,,,,,,,,,,,,,,,,,,,,,,,,,,,,,,,,,,,,,,,,,,,,,,,,,,,,,,,,,,,,,,,,,,,,,,,,,,,,,,,,,,,,,,,2829.6108332001604,2830.5601443999913,1,1,2829.6108332001604,2830.5601443999913,2830.5571292999666,None,0.3859685999341309,,,,,,,,,,,,,,,,,,,,,,,,,,,,,,,1103,001,2,UA,2022_Feb_18_1342,task_complete_blocked_LC_updated,2021.2.3,239.20583636832805,
,,,X,1,,,,,,,,,,,,,,,,,,,,,,,2,0,4,0,,,,,,,,,,,,,,,,,,,,,,,,,,,,,,,,,,,,,,,,,,,,,,,,,,,,,,,,,,,,,,,,,,,,,,,,,,,,,,,,,,,,,,,,,,,,,,,2830.6101436000317,2831.558765999973,1,1,2830.6101436000317,2831.558765999973,2831.5551843000576,None,0.6547842998988926,,,,,,,,,,,,,,,,,,,,,,,,,,,,,,,1103,001,2,UA,2022_Feb_18_1342,task_complete_blocked_LC_updated,2021.2.3,239.20583636832805,
,,,O,2,,,,,,,,,,,,,,,,,,,,,,,2,1,5,1,,,,,,,,,,,,,,,,,,,,,,,,,,,,,,,,,,,,,,,,,,,,,,,,,,,,,,,,,,,,,,,,,,,,,,,,,,,,,,,,,,,,,,,,,,,,,,,2831.6080231999513,2832.559858100023,2,1,2831.6080231999513,2832.559858100023,2832.556021000026,2831.6080231999513,0.43693219986744225,,,,,,,,,,,,,,,,,,,,,,,,,,,,,,,1103,001,2,UA,2022_Feb_18_1342,task_complete_blocked_LC_updated,2021.2.3,239.20583636832805,
,,,O,2,,,,,,,,,,,,,,,,,,,,,,,3,0,6,1,,,,,,,,,,,,,,,,,,,,,,,,,,,,,,,,,,,,,,,,,,,,,,,,,,,,,,,,,,,,,,,,,,,,,,,,,,,,,,,,,,,,,,,,,,,,,,,2832.610076199984,2833.559920700034,2,1,2832.610076199984,2833.559920700034,2833.55674060015,None,0.591010200092569,,,,,,,,,,,,,,,,,,,,,,,,,,,,,,,1103,001,2,UA,2022_Feb_18_1342,task_complete_blocked_LC_updated,2021.2.3,239.20583636832805,
,,,X,1,,,,,,,,,,,,,,,,,,,,,,,3,1,7,0,,,,,,,,,,,,,,,,,,,,,,,,,,,,,,,,,,,,,,,,,,,,,,,,,,,,,,,,,,,,,,,,,,,,,,,,,,,,,,,,,,,,,,,,,,,,,,,2833.6095482001547,2834.5594991000835,1,1,2833.6095482001547,2834.5594991000835,2834.5549953000154,None,0.505517200101167,,,,,,,,,,,,,,,,,,,,,,,,,,,,,,,1103,001,2,UA,2022_Feb_18_1342,task_complete_blocked_LC_updated,2021.2.3,239.20583636832805,
,,,X,1,,,,,,,,,,,,,,,,,,,,,,,4,0,8,0,,,,,,,,,,,,,,,,,,,,,,,,,,,,,,,,,,,,,,,,,,,,,,,,,,,,,,,,,,,,,,,,,,,,,,,,,,,,,,,,,,,,,,,,,,,,,,,2834.6066000000574,2835.5569742999505,1,1,2834.6066000000574,2835.5569742999505,2835.554256499978,2834.6066000000574,0.35292580001987517,,,,,,,,,,,,,,,,,,,,,,,,,,,,,,,1103,001,2,UA,2022_Feb_18_1342,task_complete_blocked_LC_updated,2021.2.3,239.20583636832805,
,,,O,2,,,,,,,,,,,,,,,,,,,,,,,4,1,9,1,,,,,,,,,,,,,,,,,,,,,,,,,,,,,,,,,,,,,,,,,,,,,,,,,,,,,,,,,,,,,,,,,,,,,,,,,,,,,,,,,,,,,,,,,,,,,,,2835.6071427999996,2836.5587647999637,2,1,2835.6071427999996,2836.5587647999637,2836.5550300001632,2835.6071427999996,0.43596130004152656,,,,,,,,,,,,,,,,,,,,,,,,,,,,,,,1103,001,2,UA,2022_Feb_18_1342,task_complete_blocked_LC_updated,2021.2.3,239.20583636832805,
,,,O,2,,,,,,,,,,,,,,,,,,,,,,,5,0,10,1,,,,,,,,,,,,,,,,,,,,,,,,,,,,,,,,,,,,,,,,,,,,,,,,,,,,,,,,,,,,,,,,,,,,,,,,,,,,,,,,,,,,,,,,,,,,,,,2836.6066566000227,2837.557915700134,2,1,2836.6066566000227,2837.557915700134,2837.5541900000535,2836.6066566000227,0.31838009995408356,,,,,,,,,,,,,,,,,,,,,,,,,,,,,,,1103,001,2,UA,2022_Feb_18_1342,task_complete_blocked_LC_updated,2021.2.3,239.20583636832805,
,,,X,1,,,,,,,,,,,,,,,,,,,,,,,5,1,11,0,,,,,,,,,,,,,,,,,,,,,,,,,,,,,,,,,,,,,,,,,,,,,,,,,,,,,,,,,,,,,,,,,,,,,,,,,,,,,,,,,,,,,,,,,,,,,,,2837.6129763000645,2838.563160300022,1,1,2837.6129763000645,2838.563160300022,2838.55879930011,2837.6129763000645,0.7696851000655442,,,,,,,,,,,,,,,,,,,,,,,,,,,,,,,1103,001,2,UA,2022_Feb_18_1342,task_complete_blocked_LC_updated,2021.2.3,239.20583636832805,
,,,X,1,,,,,,,,,,,,,,,,,,,,,,,6,0,12,0,,,,,,,,,,,,,,,,,,,,,,,,,,,,,,,,,,,,,,,,,,,,,,,,,,,,,,,,,,,,,,,,,,,,,,,,,,,,,,,,,,,,,,,,,,,,,,,2838.613047100138,2839.5667383000255,1,1,2838.613047100138,2839.5667383000255,2839.55693670013,None,0.43064780021086335,,,,,,,,,,,,,,,,,,,,,,,,,,,,,,,1103,001,2,UA,2022_Feb_18_1342,task_complete_blocked_LC_updated,2021.2.3,239.20583636832805,
,,,O,2,,,,,,,,,,,,,,,,,,,,,,,6,1,13,1,,,,,,,,,,,,,,,,,,,,,,,,,,,,,,,,,,,,,,,,,,,,,,,,,,,,,,,,,,,,,,,,,,,,,,,,,,,,,,,,,,,,,,,,,,,,,,,2839.6223820000887,2840.5720726000145,2,1,2839.6223820000887,2840.5720726000145,2840.564650699962,None,0.5177140000741929,,,,,,,,,,,,,,,,,,,,,,,,,,,,,,,1103,001,2,UA,2022_Feb_18_1342,task_complete_blocked_LC_updated,2021.2.3,239.20583636832805,
,,,O,2,,,,,,,,,,,,,,,,,,,,,,,7,0,14,1,,,,,,,,,,,,,,,,,,,,,,,,,,,,,,,,,,,,,,,,,,,,,,,,,,,,,,,,,,,,,,,,,,,,,,,,,,,,,,,,,,,,,,,,,,,,,,,2840.608660600148,2841.562183300033,2,1,2840.608660600148,2841.562183300033,2841.5534177999943,None,0.3383794000837952,,,,,,,,,,,,,,,,,,,,,,,,,,,,,,,1103,001,2,UA,2022_Feb_18_1342,task_complete_blocked_LC_updated,2021.2.3,239.20583636832805,
,,,X,1,,,,,,,,,,,,,,,,,,,,,,,7,1,15,0,,,,,,,,,,,,,,,,,,,,,,,,,,,,,,,,,,,,,,,,,,,,,,,,,,,,,,,,,,,,,,,,,,,,,,,,,,,,,,,,,,,,,,,,,,,,,,,2841.6078798000235,2842.5587484000716,1,1,2841.6078798000235,2842.5587484000716,2842.5552438001614,2841.6078798000235,0.38198070018552244,,,,,,,,,,,,,,,,,,,,,,,,,,,,,,,1103,001,2,UA,2022_Feb_18_1342,task_complete_blocked_LC_updated,2021.2.3,239.20583636832805,
,,,O,2,,,,,,,,,,,,,,,,,,,,,,,8,0,16,1,,,,,,,,,,,,,,,,,,,,,,,,,,,,,,,,,,,,,,,,,,,,,,,,,,,,,,,,,,,,,,,,,,,,,,,,,,,,,,,,,,,,,,,,,,,,,,,2842.60814399994,2843.5606623999774,2,1,2842.60814399994,2843.5606623999774,2843.5574105000123,2842.60814399994,0.7463537000585347,,,,,,,,,,,,,,,,,,,,,,,,,,,,,,,1103,001,2,UA,2022_Feb_18_1342,task_complete_blocked_LC_updated,2021.2.3,239.20583636832805,
,,,X,1,,,,,,,,,,,,,,,,,,,,,,,8,1,17,0,,,,,,,,,,,,,,,,,,,,,,,,,,,,,,,,,,,,,,,,,,,,,,,,,,,,,,,,,,,,,,,,,,,,,,,,,,,,,,,,,,,,,,,,,,,,,,,2843.6143575001042,2844.5656818000134,1,1,2843.6143575001042,2844.5656818000134,2844.562320200028,None,0.6293069999665022,,,,,,,,,,,,,,,,,,,,,,,,,,,,,,,1103,001,2,UA,2022_Feb_18_1342,task_complete_blocked_LC_updated,2021.2.3,239.20583636832805,
,,,O,2,,,,,,,,,,,,,,,,,,,,,,,9,0,18,1,,,,,,,,,,,,,,,,,,,,,,,,,,,,,,,,,,,,,,,,,,,,,,,,,,,,,,,,,,,,,,,,,,,,,,,,,,,,,,,,,,,,,,,,,,,,,,,2844.6102934000082,2845.563308299985,2,1,2844.6102934000082,2845.563308299985,2845.560282899998,None,0.5117774000391364,,,,,,,,,,,,,,,,,,,,,,,,,,,,,,,1103,001,2,UA,2022_Feb_18_1342,task_complete_blocked_LC_updated,2021.2.3,239.20583636832805,
,,,X,1,,,,,,,,,,,,,,,,,,,,,,,9,1,19,0,,,,,,,,,,,,,,,,,,,,,,,,,,,,,,,,,,,,,,,,,,,,,,,,,,,,,,,,,,,,,,,,,,,,,,,,,,,,,,,,,,,,,,,,,,,,,,,2845.6100723999552,2846.5594548999798,1,1,2845.6100723999552,2846.5594548999798,2846.556079500122,None,0.568770700134337,,,,,,,,,,,,,,,,,,,,,,,,,,,,,,,1103,001,2,UA,2022_Feb_18_1342,task_complete_blocked_LC_updated,2021.2.3,239.20583636832805,
,,,X,1,,,,,,,,,,,,,,,,,,,,,,,10,0,20,0,,,,,,,,,,,,,,,,,,,,,,,,,,,,,,,,,,,,,,,,,,,,,,,,,,,,,,,,,,,,,,,,,,,,,,,,,,,,,,,,,,,,,,,,,,,,,,,2846.609219199978,2847.5598614001647,1,1,2846.609219199978,2847.5598614001647,2847.5560992001556,None,0.7666349001228809,,,,,,,,,,,,,,,,,,,,,,,,,,,,,,,1103,001,2,UA,2022_Feb_18_1342,task_complete_blocked_LC_updated,2021.2.3,239.20583636832805,
,,,O,2,,,,,,,,,,,,,,,,,,,,,,,10,1,21,1,,,,,,,,,,,,,,,,,,,,,,,,,,,,,,,,,,,,,,,,,,,,,,,,,,,,,,,,,,,,,,,,,,,,,,,,,,,,,,,,,,,,,,,,,,,,,,,2847.610226199962,2848.5635357000865,None,0,2847.610226199962,2848.5635357000865,2848.56025999994,None,,,,,,,,,,,,,,,,,,,,,,,,,,,,,,,,1103,001,2,UA,2022_Feb_18_1342,task_complete_blocked_LC_updated,2021.2.3,239.20583636832805,
,,,O,2,,,,,,,,,,,,,,,,,,,,,,,11,0,22,1,,,,,,,,,,,,,,,,,,,,,,,,,,,,,,,,,,,,,,,,,,,,,,,,,,,,,,,,,,,,,,,,,,,,,,,,,,,,,,,,,,,,,,,,,,,,,,,2848.6100477001164,2849.569961800007,2,1,2848.6100477001164,2849.569961800007,2849.564958699979,None,0.5346802000422031,,,,,,,,,,,,,,,,,,,,,,,,,,,,,,,1103,001,2,UA,2022_Feb_18_1342,task_complete_blocked_LC_updated,2021.2.3,239.20583636832805,
,,,X,1,,,,,,,,,,,,,,,,,,,,,,,11,1,23,0,,,,,,,,,,,,,,,,,,,,,,,,,,,,,,,,,,,,,,,,,,,,,,,,,,,,,,,,,,,,,,,,,,,,,,,,,,,,,,,,,,,,,,,,,,,,,,,2849.612350899959,2850.560493099969,1,1,2849.612350899959,2850.560493099969,2850.560493099969,None,0.5484639999922365,,,,,,,,,,,,,,,,,,,,,,,,,,,,,,,1103,001,2,UA,2022_Feb_18_1342,task_complete_blocked_LC_updated,2021.2.3,239.20583636832805,
,,,X,1,,,,,,,,,,,,,,,,,,,,,,,12,0,24,0,,,,,,,,,,,,,,,,,,,,,,,,,,,,,,,,,,,,,,,,,,,,,,,,,,,,,,,,,,,,,,,,,,,,,,,,,,,,,,,,,,,,,,,,,,,,,,,2850.6096944001038,2851.560285100015,1,1,2850.6096944001038,2851.560285100015,2851.5575204000343,None,0.8345115999691188,,,,,,,,,,,,,,,,,,,,,,,,,,,,,,,1103,001,2,UA,2022_Feb_18_1342,task_complete_blocked_LC_updated,2021.2.3,239.20583636832805,
,,,O,2,,,,,,,,,,,,,,,,,,,,,,,12,1,25,1,,,,,,,,,,,,,,,,,,,,,,,,,,,,,,,,,,,,,,,,,,,,,,,,,,,,,,,,,,,,,,,,,,,,,,,,,,,,,,,,,,,,,,,,,,,,,,,2851.6106374000665,2852.5604532000143,2,1,2851.6106374000665,2852.5604532000143,2852.5559535999782,None,0.5981054999865592,,,,,,,,,,,,,,,,,,,,,,,,,,,,,,,1103,001,2,UA,2022_Feb_18_1342,task_complete_blocked_LC_updated,2021.2.3,239.20583636832805,
,,,X,1,,,,,,,,,,,,,,,,,,,,,,,13,0,26,0,,,,,,,,,,,,,,,,,,,,,,,,,,,,,,,,,,,,,,,,,,,,,,,,,,,,,,,,,,,,,,,,,,,,,,,,,,,,,,,,,,,,,,,,,,,,,,,2852.6106233000755,2853.5624540999997,1,1,2852.6106233000755,2853.5624540999997,2853.559016400017,None,0.7106027998961508,,,,,,,,,,,,,,,,,,,,,,,,,,,,,,,1103,001,2,UA,2022_Feb_18_1342,task_complete_blocked_LC_updated,2021.2.3,239.20583636832805,
,,,O,2,,,,,,,,,,,,,,,,,,,,,,,13,1,27,1,,,,,,,,,,,,,,,,,,,,,,,,,,,,,,,,,,,,,,,,,,,,,,,,,,,,,,,,,,,,,,,,,,,,,,,,,,,,,,,,,,,,,,,,,,,,,,,2853.610240200069,2854.560229500057,2,1,2853.610240200069,2854.560229500057,2854.5568294001278,None,0.46343489992432296,,,,,,,,,,,,,,,,,,,,,,,,,,,,,,,1103,001,2,UA,2022_Feb_18_1342,task_complete_blocked_LC_updated,2021.2.3,239.20583636832805,
,,,X,1,,,,,,,,,,,,,,,,,,,,,,,14,0,28,0,,,,,,,,,,,,,,,,,,,,,,,,,,,,,,,,,,,,,,,,,,,,,,,,,,,,,,,,,,,,,,,,,,,,,,,,,,,,,,,,,,,,,,,,,,,,,,,2854.614458499942,2855.567217899952,1,1,2854.614458499942,2855.567217899952,2855.564010000089,None,0.5412230999208987,,,,,,,,,,,,,,,,,,,,,,,,,,,,,,,1103,001,2,UA,2022_Feb_18_1342,task_complete_blocked_LC_updated,2021.2.3,239.20583636832805,
,,,O,2,,,,,,,,,,,,,,,,,,,,,,,14,1,29,1,,,,,,,,,,,,,,,,,,,,,,,,,,,,,,,,,,,,,,,,,,,,,,,,,,,,,,,,,,,,,,,,,,,,,,,,,,,,,,,,,,,,,,,,,,,,,,,2855.6118398001418,2856.563169399975,2,1,2855.6118398001418,2856.563169399975,2856.5588106000796,None,0.4472840998787433,,,,,,,,,,,,,,,,,,,,,,,,,,,,,,,1103,001,2,UA,2022_Feb_18_1342,task_complete_blocked_LC_updated,2021.2.3,239.20583636832805,
,,,X,1,,,,,,,,,,,,,,,,,,,,,,,15,0,30,0,,,,,,,,,,,,,,,,,,,,,,,,,,,,,,,,,,,,,,,,,,,,,,,,,,,,,,,,,,,,,,,,,,,,,,,,,,,,,,,,,,,,,,,,,,,,,,,2856.611371899955,2857.5623074001633,1,1,2856.611371899955,2857.5623074001633,2857.5580641000997,None,0.42274229996837676,,,,,,,,,,,,,,,,,,,,,,,,,,,,,,,1103,001,2,UA,2022_Feb_18_1342,task_complete_blocked_LC_updated,2021.2.3,239.20583636832805,
,,,O,2,,,,,,,,,,,,,,,,,,,,,,,15,1,31,1,,,,,,,,,,,,,,,,,,,,,,,,,,,,,,,,,,,,,,,,,,,,,,,,,,,,,,,,,,,,,,,,,,,,,,,,,,,,,,,,,,,,,,,,,,,,,,,2857.6101834999863,2858.564395399997,2,1,2857.6101834999863,2858.564395399997,2858.559788600076,None,0.3228455001953989,,,,,,,,,,,,,,,,,,,,,,,,,,,,,,,1103,001,2,UA,2022_Feb_18_1342,task_complete_blocked_LC_updated,2021.2.3,239.20583636832805,
,,,X,1,,,,,,,,,,,,,,,,,,,,,,,16,0,32,0,,,,,,,,,,,,,,,,,,,,,,,,,,,,,,,,,,,,,,,,,,,,,,,,,,,,,,,,,,,,,,,,,,,,,,,,,,,,,,,,,,,,,,,,,,,,,,,2858.6100133000873,2859.5639261000324,1,1,2858.6100133000873,2859.5639261000324,2859.5604632000905,None,0.6451036999933422,,,,,,,,,,,,,,,,,,,,,,,,,,,,,,,1103,001,2,UA,2022_Feb_18_1342,task_complete_blocked_LC_updated,2021.2.3,239.20583636832805,
,,,O,2,,,,,,,,,,,,,,,,,,,,,,,16,1,33,1,,,,,,,,,,,,,,,,,,,,,,,,,,,,,,,,,,,,,,,,,,,,,,,,,,,,,,,,,,,,,,,,,,,,,,,,,,,,,,,,,,,,,,,,,,,,,,,2859.6140396001283,2860.569135900121,2,1,2859.6140396001283,2860.569135900121,2860.5586455999874,None,0.38010090007446706,,,,,,,,,,,,,,,,,,,,,,,,,,,,,,,1103,001,2,UA,2022_Feb_18_1342,task_complete_blocked_LC_updated,2021.2.3,239.20583636832805,
,,,O,2,,,,,,,,,,,,,,,,,,,,,,,17,0,34,1,,,,,,,,,,,,,,,,,,,,,,,,,,,,,,,,,,,,,,,,,,,,,,,,,,,,,,,,,,,,,,,,,,,,,,,,,,,,,,,,,,,,,,,,,,,,,,,2860.609226900153,2861.560056200018,2,1,2860.609226900153,2861.560056200018,2861.5575387999415,None,0.8825606999453157,,,,,,,,,,,,,,,,,,,,,,,,,,,,,,,1103,001,2,UA,2022_Feb_18_1342,task_complete_blocked_LC_updated,2021.2.3,239.20583636832805,
,,,X,1,,,,,,,,,,,,,,,,,,,,,,,17,1,35,0,,,,,,,,,,,,,,,,,,,,,,,,,,,,,,,,,,,,,,,,,,,,,,,,,,,,,,,,,,,,,,,,,,,,,,,,,,,,,,,,,,,,,,,,,,,,,,,2861.610071599949,2862.5603589999955,1,1,2861.610071599949,2862.5603589999955,2862.557282899972,None,0.5628307999577373,,,,,,,,,,,,,,,,,,,,,,,,,,,,,,,1103,001,2,UA,2022_Feb_18_1342,task_complete_blocked_LC_updated,2021.2.3,239.20583636832805,
,,,X,1,,,,,,,,,,,,,,,,,,,,,,,18,0,36,0,,,,,,,,,,,,,,,,,,,,,,,,,,,,,,,,,,,,,,,,,,,,,,,,,,,,,,,,,,,,,,,,,,,,,,,,,,,,,,,,,,,,,,,,,,,,,,,2862.6097510999534,2863.560542399995,1,1,2862.6097510999534,2863.560542399995,2863.5563870000187,None,0.6987212998792529,,,,,,,,,,,,,,,,,,,,,,,,,,,,,,,1103,001,2,UA,2022_Feb_18_1342,task_complete_blocked_LC_updated,2021.2.3,239.20583636832805,
,,,O,2,,,,,,,,,,,,,,,,,,,,,,,18,1,37,1,,,,,,,,,,,,,,,,,,,,,,,,,,,,,,,,,,,,,,,,,,,,,,,,,,,,,,,,,,,,,,,,,,,,,,,,,,,,,,,,,,,,,,,,,,,,,,,2863.6103181999642,2864.563354999991,2,1,2863.6103181999642,2864.563354999991,2864.5605331000406,None,0.516583199845627,,,,,,,,,,,,,,,,,,,,,,,,,,,,,,,1103,001,2,UA,2022_Feb_18_1342,task_complete_blocked_LC_updated,2021.2.3,239.20583636832805,
,,,O,2,,,,,,,,,,,,,,,,,,,,,,,19,0,38,1,,,,,,,,,,,,,,,,,,,,,,,,,,,,,,,,,,,,,,,,,,,,,,,,,,,,,,,,,,,,,,,,,,,,,,,,,,,,,,,,,,,,,,,,,,,,,,,2864.608940300066,2865.5602315000724,2,1,2864.608940300066,2865.5602315000724,2865.557968799956,None,0.5101759000681341,,,,,,,,,,,,,,,,,,,,,,,,,,,,,,,1103,001,2,UA,2022_Feb_18_1342,task_complete_blocked_LC_updated,2021.2.3,239.20583636832805,
,,,X,1,,,,,,,,,,,,,,,,,,,,,,,19,1,39,0,,,,,,,,,,,,,,,,,,,,,,,,,,,,,,,,,,,,,,,,,,,,,,,,,,,,,,,,,,,,,,,,,,,,,,,,,,,,,,,,,,,,,,,,,,,,,,,2865.6123526000883,2866.5619018001016,1,1,2865.6123526000883,2866.5619018001016,2866.558873000089,2865.6123526000883,0.5965675001498312,,,,,,,,,,,,,,,,,,,,,,,,,,,,,,,1103,001,2,UA,2022_Feb_18_1342,task_complete_blocked_LC_updated,2021.2.3,239.20583636832805,
,,,X,1,,,,,,,,,,,,,,,,,,,,,,,20,0,40,0,,,,,,,,,,,,,,,,,,,,,,,,,,,,,,,,,,,,,,,,,,,,,,,,,,,,,,,,,,,,,,,,,,,,,,,,,,,,,,,,,,,,,,,,,,,,,,,2866.6095400999766,2867.5600234000012,1,1,2866.6095400999766,2867.5600234000012,2867.557099699974,None,0.33210300002247095,,,,,,,,,,,,,,,,,,,,,,,,,,,,,,,1103,001,2,UA,2022_Feb_18_1342,task_complete_blocked_LC_updated,2021.2.3,239.20583636832805,
,,,O,2,,,,,,,,,,,,,,,,,,,,,,,20,1,41,1,,,,,,,,,,,,,,,,,,,,,,,,,,,,,,,,,,,,,,,,,,,,,,,,,,,,,,,,,,,,,,,,,,,,,,,,,,,,,,,,,,,,,,,,,,,,,,,2867.60988610005,2868.5606712000445,2,1,2867.60988610005,2868.5606712000445,2868.5567773999646,None,0.5777626999188215,,,,,,,,,,,,,,,,,,,,,,,,,,,,,,,1103,001,2,UA,2022_Feb_18_1342,task_complete_blocked_LC_updated,2021.2.3,239.20583636832805,
,,,O,2,,,,,,,,,,,,,,,,,,,,,,,21,0,42,1,,,,,,,,,,,,,,,,,,,,,,,,,,,,,,,,,,,,,,,,,,,,,,,,,,,,,,,,,,,,,,,,,,,,,,,,,,,,,,,,,,,,,,,,,,,,,,,2868.6095889001153,2869.5731637999415,2,1,2868.6095889001153,2869.5731637999415,2869.5652155000716,None,0.3263619001954794,,,,,,,,,,,,,,,,,,,,,,,,,,,,,,,1103,001,2,UA,2022_Feb_18_1342,task_complete_blocked_LC_updated,2021.2.3,239.20583636832805,
,,,X,1,,,,,,,,,,,,,,,,,,,,,,,21,1,43,0,,,,,,,,,,,,,,,,,,,,,,,,,,,,,,,,,,,,,,,,,,,,,,,,,,,,,,,,,,,,,,,,,,,,,,,,,,,,,,,,,,,,,,,,,,,,,,,2869.6099330999423,2870.5636818001512,None,0,2869.6099330999423,2870.5636818001512,2870.560342000099,None,,,,,,,,,,,,,,,,,,,,,,,,,,,,,,,,1103,001,2,UA,2022_Feb_18_1342,task_complete_blocked_LC_updated,2021.2.3,239.20583636832805,
,,,X,1,,,,,,,,,,,,,,,,,,,,,,,22,0,44,0,,,,,,,,,,,,,,,,,,,,,,,,,,,,,,,,,,,,,,,,,,,,,,,,,,,,,,,,,,,,,,,,,,,,,,,,,,,,,,,,,,,,,,,,,,,,,,,2870.6106537999585,2871.5612423000857,1,1,2870.6106537999585,2871.5612423000857,2871.558078299975,None,0.3660150000359863,,,,,,,,,,,,,,,,,,,,,,,,,,,,,,,1103,001,2,UA,2022_Feb_18_1342,task_complete_blocked_LC_updated,2021.2.3,239.20583636832805,
,,,O,2,,,,,,,,,,,,,,,,,,,,,,,22,1,45,1,,,,,,,,,,,,,,,,,,,,,,,,,,,,,,,,,,,,,,,,,,,,,,,,,,,,,,,,,,,,,,,,,,,,,,,,,,,,,,,,,,,,,,,,,,,,,,,2871.6106529999524,2872.563922600122,2,1,2871.6106529999524,2872.563922600122,2872.563922600122,None,0.43032220005989075,,,,,,,,,,,,,,,,,,,,,,,,,,,,,,,1103,001,2,UA,2022_Feb_18_1342,task_complete_blocked_LC_updated,2021.2.3,239.20583636832805,
,,,X,1,,,,,,,,,,,,,,,,,,,,,,,23,0,46,0,,,,,,,,,,,,,,,,,,,,,,,,,,,,,,,,,,,,,,,,,,,,,,,,,,,,,,,,,,,,,,,,,,,,,,,,,,,,,,,,,,,,,,,,,,,,,,,2872.616366900038,2873.569622900104,1,1,2872.616366900038,2873.569622900104,2873.5654782999773,None,0.7512123000342399,,,,,,,,,,,,,,,,,,,,,,,,,,,,,,,1103,001,2,UA,2022_Feb_18_1342,task_complete_blocked_LC_updated,2021.2.3,239.20583636832805,
,,,O,2,,,,,,,,,,,,,,,,,,,,,,,23,1,47,1,,,,,,,,,,,,,,,,,,,,,,,,,,,,,,,,,,,,,,,,,,,,,,,,,,,,,,,,,,,,,,,,,,,,,,,,,,,,,,,,,,,,,,,,,,,,,,,2873.610516499961,2874.5608554999344,2,1,2873.610516499961,2874.5608554999344,2874.558067200007,None,0.41800129995681345,,,,,,,,,,,,,,,,,,,,,,,,,,,,,,,1103,001,2,UA,2022_Feb_18_1342,task_complete_blocked_LC_updated,2021.2.3,239.20583636832805,
,,,X,1,,,,,,,,,,,,,,,,,,,,,,,24,0,48,0,,,,,,,,,,,,,,,,,,,,,,,,,,,,,,,,,,,,,,,,,,,,,,,,,,,,,,,,,,,,,,,,,,,,,,,,,,,,,,,,,,,,,,,,,,,,,,,2874.6105031000916,2875.5618609001394,1,1,2874.6105031000916,2875.5618609001394,2875.5582244000398,None,0.6284465999342501,,,,,,,,,,,,,,,,,,,,,,,,,,,,,,,1103,001,2,UA,2022_Feb_18_1342,task_complete_blocked_LC_updated,2021.2.3,239.20583636832805,
,,,O,2,,,,,,,,,,,,,,,,,,,,,,,24,1,49,1,,,,,,,,,,,,,,,,,,,,,,,,,,,,,,,,,,,,,,,,,,,,,,,,,,,,,,,,,,,,,,,,,,,,,,,,,,,,,,,,,,,,,,,,,,,,,,,2875.6107393000275,2876.5642848999705,2,1,2875.6107393000275,2876.5642848999705,2876.5583874001168,None,0.44318289984948933,,,,,,,,,,,,,,,,,,,,,,,,,,,,,,,1103,001,2,UA,2022_Feb_18_1342,task_complete_blocked_LC_updated,2021.2.3,239.20583636832805,
,,,O,2,,,,,,,,,,,,,,,,,,,,,,,25,0,50,1,,,,,,,,,,,,,,,,,,,,,,,,,,,,,,,,,,,,,,,,,,,,,,,,,,,,,,,,,,,,,,,,,,,,,,,,,,,,,,,,,,,,,,,,,,,,,,,2876.6116148000583,2877.565253400011,2,1,2876.6116148000583,2877.565253400011,2877.5561055999715,None,0.5130034000612795,,,,,,,,,,,,,,,,,,,,,,,,,,,,,,,1103,001,2,UA,2022_Feb_18_1342,task_complete_blocked_LC_updated,2021.2.3,239.20583636832805,
,,,X,1,,,,,,,,,,,,,,,,,,,,,,,25,1,51,0,,,,,,,,,,,,,,,,,,,,,,,,,,,,,,,,,,,,,,,,,,,,,,,,,,,,,,,,,,,,,,,,,,,,,,,,,,,,,,,,,,,,,,,,,,,,,,,2877.6099101,2878.564690900035,1,1,2877.6099101,2878.564690900035,2878.554319499992,None,0.5117253998760134,,,,,,,,,,,,,,,,,,,,,,,,,,,,,,,1103,001,2,UA,2022_Feb_18_1342,task_complete_blocked_LC_updated,2021.2.3,239.20583636832805,
,,,X,1,,,,,,,,,,,,,,,,,,,,,,,26,0,52,0,,,,,,,,,,,,,,,,,,,,,,,,,,,,,,,,,,,,,,,,,,,,,,,,,,,,,,,,,,,,,,,,,,,,,,,,,,,,,,,,,,,,,,,,,,,,,,,2878.606857200153,2879.5548465000466,1,1,2878.606857200153,2879.5548465000466,2879.5523351000156,2878.606857200153,0.42084180004894733,,,,,,,,,,,,,,,,,,,,,,,,,,,,,,,1103,001,2,UA,2022_Feb_18_1342,task_complete_blocked_LC_updated,2021.2.3,239.20583636832805,
,,,O,2,,,,,,,,,,,,,,,,,,,,,,,26,1,53,1,,,,,,,,,,,,,,,,,,,,,,,,,,,,,,,,,,,,,,,,,,,,,,,,,,,,,,,,,,,,,,,,,,,,,,,,,,,,,,,,,,,,,,,,,,,,,,,2879.6077421000227,2880.559974899981,2,1,2879.6077421000227,2880.559974899981,2880.557158899959,2879.6077421000227,0.46899219998158514,,,,,,,,,,,,,,,,,,,,,,,,,,,,,,,1103,001,2,UA,2022_Feb_18_1342,task_complete_blocked_LC_updated,2021.2.3,239.20583636832805,
,,,X,1,,,,,,,,,,,,,,,,,,,,,,,27,0,54,0,,,,,,,,,,,,,,,,,,,,,,,,,,,,,,,,,,,,,,,,,,,,,,,,,,,,,,,,,,,,,,,,,,,,,,,,,,,,,,,,,,,,,,,,,,,,,,,2880.610265000025,2881.5596732001286,1,1,2880.610265000025,2881.5596732001286,2881.5566052000504,None,0.5783438000362366,,,,,,,,,,,,,,,,,,,,,,,,,,,,,,,1103,001,2,UA,2022_Feb_18_1342,task_complete_blocked_LC_updated,2021.2.3,239.20583636832805,
,,,O,2,,,,,,,,,,,,,,,,,,,,,,,27,1,55,1,,,,,,,,,,,,,,,,,,,,,,,,,,,,,,,,,,,,,,,,,,,,,,,,,,,,,,,,,,,,,,,,,,,,,,,,,,,,,,,,,,,,,,,,,,,,,,,2881.610012100078,2882.559047800023,2,1,2881.610012100078,2882.559047800023,2882.555249999976,None,0.41279780003242195,,,,,,,,,,,,,,,,,,,,,,,,,,,,,,,1103,001,2,UA,2022_Feb_18_1342,task_complete_blocked_LC_updated,2021.2.3,239.20583636832805,
,,,X,1,,,,,,,,,,,,,,,,,,,,,,,28,0,56,0,,,,,,,,,,,,,,,,,,,,,,,,,,,,,,,,,,,,,,,,,,,,,,,,,,,,,,,,,,,,,,,,,,,,,,,,,,,,,,,,,,,,,,,,,,,,,,,2882.6067733999807,2883.558967299992,1,1,2882.6067733999807,2883.558967299992,2883.5559725000057,2882.6067733999807,0.4079074999317527,,,,,,,,,,,,,,,,,,,,,,,,,,,,,,,1103,001,2,UA,2022_Feb_18_1342,task_complete_blocked_LC_updated,2021.2.3,239.20583636832805,
,,,O,2,,,,,,,,,,,,,,,,,,,,,,,28,1,57,1,,,,,,,,,,,,,,,,,,,,,,,,,,,,,,,,,,,,,,,,,,,,,,,,,,,,,,,,,,,,,,,,,,,,,,,,,,,,,,,,,,,,,,,,,,,,,,,2883.6100343000144,2884.559890200151,2,1,2883.6100343000144,2884.559890200151,2884.5565248001367,None,0.3967432000208646,,,,,,,,,,,,,,,,,,,,,,,,,,,,,,,1103,001,2,UA,2022_Feb_18_1342,task_complete_blocked_LC_updated,2021.2.3,239.20583636832805,
,,,X,1,,,,,,,,,,,,,,,,,,,,,,,29,0,58,0,,,,,,,,,,,,,,,,,,,,,,,,,,,,,,,,,,,,,,,,,,,,,,,,,,,,,,,,,,,,,,,,,,,,,,,,,,,,,,,,,,,,,,,,,,,,,,,2884.610491700005,2885.560867600143,1,1,2884.610491700005,2885.560867600143,2885.5575278000906,None,0.45923839998431504,,,,,,,,,,,,,,,,,,,,,,,,,,,,,,,1103,001,2,UA,2022_Feb_18_1342,task_complete_blocked_LC_updated,2021.2.3,239.20583636832805,
,,,O,2,,,,,,,,,,,,,,,,,,,,,,,29,1,59,1,,,,,,,,,,,,,,,,,,,,,,,,,,,,,,,,,,,,,,,,,,,,,,,,,,,,,,,,,,,,,,,,,,,,,,,,,,,,,,,,,,,,,,,,,,,,,,,2885.6109134000726,2886.5588708999567,2,1,2885.6109134000726,2886.5588708999567,2886.5588708999567,None,0.37881739996373653,,,,,,,,,,,,,,,,,,,,,,,,,,,,,,,1103,001,2,UA,2022_Feb_18_1342,task_complete_blocked_LC_updated,2021.2.3,239.20583636832805,
,,,,,,,,,,,,,,,,,,,,,,,,,,,,,,,,,,,,,,,,,,,,,,,,,,,,,,,,,,,,,,,,,,,,,,,,,,,,,,,,,,,,,,,,,,,,,,,,,,,,,,,,,,,,,,,,,,,,,,,,,,,,,,,,,,,,,,2886.60900279996,None,space,29.306372599909082,2891.609158999985,None,,,,,,,,,,,,,,,,,,,,,,,,,1103,001,2,UA,2022_Feb_18_1342,task_complete_blocked_LC_updated,2021.2.3,239.20583636832805,
,,,,,,,,,,,,,,,,,,,,,,,,,,,,,,,,,,,,,,,,,,,,,,,,,,,,,,,,,,,,,,,,,,,,,,,,,,,,,,,,,,,,,,,,,,,,,,,2920.922810900025,None,5,9.965196599951014,2920.922810900025,None,,,,,,,,,,,,,,,,,,,,,,,,,,,,,,,,,,,,,,,,2891.609158999985,None,,,,,,,,,,,,,,,,,,,,,,,1103,001,2,UA,2022_Feb_18_1342,task_complete_blocked_LC_updated,2021.2.3,239.20583636832805,
stimulus_images/Aplantinpot2.jpg,SPACE,0,,,,,,,,,,,,,,,,,,,,,,,,,,,,,0,0,0,9,,,,,,,,,,,,,,,,,,,,,,,,,,,,,,,,,,,,,,,,,,,,,,,,,,,,,,,,,,,,,,,,,,,2.400018274784088e-06,2930.918445700081,2932.9179436000995,2930.918445700081,2932.9179436000995,2931.914293100126,2932.914916800102,2931.914293100126,2932.914916800102,2932.914916800102,None,5.988208599854261,2936.9015014001634,None,2936.9015014001634,None,4,0.7499394998885691,2936.9015014001634,None,2942.9024712999817,None,,,,,,,,,,,,,,,,,,,,,,,,,,,,,,,,,,,,,,,,,,1103,001,2,UA,2022_Feb_18_1342,task_complete_blocked_LC_updated,2021.2.3,239.20583636832805,
stimulus_images/Aflower102.jpg,SPACE,0,,,,,,,,,,,,,,,,,,,,,,,,,,,,,0,1,1,6,,,,,,,,,,,,,,,,,,,,,,,,,,,,,,,,,,,,,,,,,,,,,,,,,,,,,,,,,,,,,,,,,,,14.994288799818605,2945.9177256000694,2947.917827400146,2945.9177256000694,2947.917827400146,2946.9111204000656,2947.9099884000607,2946.9111204000656,2947.9099884000607,2947.9099884000607,None,20.996328299865127,2951.90951519995,None,2951.90951519995,None,3,0.6351823001168668,2951.90951519995,None,2957.9079543999396,None,,,,,,,,,,,,,,,,,,,,,,,,,,,,,,,,,,,,,,,,,,1103,001,2,UA,2022_Feb_18_1342,task_complete_blocked_LC_updated,2021.2.3,239.20583636832805,
stimulus_images/Achampagnebo2.jpg,SPACE,0,,,,,,,,,,,,,,,,,,,,,,,,,,,,,0,2,2,4,,,,,,,,,,,,,,,,,,,,,,,,,,,,,,,,,,,,,,,,,,,,,,,,,,,,,,,,,,,,,,,,,,,29.997981099877506,2960.9333830999676,2962.933876800118,2960.9333830999676,2962.933876800118,2961.926239100052,2962.9261213000864,2961.926239100052,2962.9261213000864,2962.9261213000864,None,36.000701599987224,2966.914075799985,None,2966.914075799985,None,3,1.180629099952057,2966.914075799985,None,2972.911114800023,None,,,,,,,,,,,,,,,,,,,,,,,,,,,,,,,,,,,,,,,,,,1103,001,2,UA,2022_Feb_18_1342,task_complete_blocked_LC_updated,2021.2.3,239.20583636832805,
stimulus_images/ALOAFBR4.jpg,SPACE,0,,,,,,,,,,,,,,,,,,,,,,,,,,,,,0,3,3,8,,,,,,,,,,,,,,,,,,,,,,,,,,,,,,,,,,,,,,,,,,,,,,,,,,,,,,,,,,,,,,,,,,,45.00241029984318,2975.9188763999846,2977.9202107000165,2975.9188763999846,2977.9202107000165,2976.918185299961,2977.917143299943,2976.918185299961,2977.917143299943,2977.9132960001007,None,51.002880699932575,2981.9163745001424,None,2981.9163745001424,None,3,0.44337330013513565,2981.9163745001424,None,2987.918660100084,None,,,,,,,,,,,,,,,,,,,,,,,,,,,,,,,,,,,,,,,,,,1103,001,2,UA,2022_Feb_18_1342,task_complete_blocked_LC_updated,2021.2.3,239.20583636832805,
stimulus_images/ACUTBOAR2.jpg,SPACE,0,,,,,,,,,,,,,,,,,,,,,,,,,,,,,0,4,4,5,,,,,,,,,,,,,,,,,,,,,,,,,,,,,,,,,,,,,,,,,,,,,,,,,,,,,,,,,,,,,,,,,,,60.00651640002616,2990.929365399992,2992.9283732001204,2990.929365399992,2992.9283732001204,2991.926427300088,2992.9283732001204,2991.926427300088,2992.9283732001204,2992.9256831000093,None,66.00919239991345,2996.9226357999723,None,2996.9226357999723,None,4,0.6552522999700159,2996.9226357999723,None,3002.9232847001404,None,,,,,,,,,,,,,,,,,,,,,,,,,,,,,,,,,,,,,,,,,,1103,001,2,UA,2022_Feb_18_1342,task_complete_blocked_LC_updated,2021.2.3,239.20583636832805,
stimulus_images/Ahandbag50.jpg,SPACE,1,,,,,,,,,,,,,,,,,,,,,,,,,,,,,0,5,5,7,,,,,,,,,,,,,,,,,,,,,,,,,,,,,,,,,,,,,,,,,,,,,,,,,,,,,,,,,,,,,,,,,,,74.0107864998281,3004.9340238999575,3006.9347479999997,3004.9340238999575,3006.9347479999997,3005.9298866000026,3006.93161910004,3005.9298866000026,3006.93161910004,3006.93161910004,None,80.01464720000513,3010.9280437999405,None,3010.9280437999405,None,4,0.46999619994312525,3010.9280437999405,None,3016.924465799937,None,,,,,,,,,,,,,,,,,,,,,,,,,,,,,,,,,,,,,,,,,,1103,001,2,UA,2022_Feb_18_1342,task_complete_blocked_LC_updated,2021.2.3,239.20583636832805,
stimulus_images/Aboardgame6.jpg,SPACE,0,,,,,,,,,,,,,,,,,,,,,,,,,,,,,0,6,6,2,,,,,,,,,,,,,,,,,,,,,,,,,,,,,,,,,,,,,,,,,,,,,,,,,,,,,,,,,,,,,,,,,,,87.0150597000029,3017.934847299941,3019.9377159001306,3017.934847299941,3019.9377159001306,3018.927395100007,3019.92909780005,3018.927395100007,3019.92909780005,3019.92909780005,None,93.01745849987492,3023.9306628000923,None,3023.9306628000923,None,3,1.4050483999308199,3023.9306628000923,None,3029.932714200113,None,,,,,,,,,,,,,,,,,,,,,,,,,,,,,,,,,,,,,,,,,,1103,001,2,UA,2022_Feb_18_1342,task_complete_blocked_LC_updated,2021.2.3,239.20583636832805,
stimulus_images/Ababybottle15.jpg,SPACE,0,,,,,,,,,,,,,,,,,,,,,,,,,,,,,0,7,7,0,,,,,,,,,,,,,,,,,,,,,,,,,,,,,,,,,,,,,,,,,,,,,,,,,,,,,,,,,,,,,,,,,,,100.02342469990253,3030.94586550002,3032.9476503999904,3030.94586550002,3032.9476503999904,3031.944393499987,3032.9476503999904,3031.944393499987,3032.9476503999904,3032.944590399973,None,106.0261734998785,3036.9399795001373,None,3036.9399795001373,None,3,1.039225600194186,3036.9399795001373,None,3042.940676999977,None,,,,,,,,,,,,,,,,,,,,,,,,,,,,,,,,,,,,,,,,,,1103,001,2,UA,2022_Feb_18_1342,task_complete_blocked_LC_updated,2021.2.3,239.20583636832805,
stimulus_images/Abasket108.jpg,SPACE,0,,,,,,,,,,,,,,,,,,,,,,,,,,,,,0,8,8,1,,,,,,,,,,,,,,,,,,,,,,,,,,,,,,,,,,,,,,,,,,,,,,,,,,,,,,,,,,,,,,,,,,,115.03255599993281,3045.956113500055,3047.960884399945,3045.956113500055,3047.960884399945,3046.9477278999984,3047.9502741000615,3046.9477278999984,3047.9502741000615,3047.9502741000615,None,121.03500159992836,3051.9485351999756,None,3051.9485351999756,None,4,0.8188153998926282,3051.9485351999756,None,3057.951055899961,None,,,,,,,,,,,,,,,,,,,,,,,,,,,,,,,,,,,,,,,,,,1103,001,2,UA,2022_Feb_18_1342,task_complete_blocked_LC_updated,2021.2.3,239.20583636832805,
stimulus_images/Acactusplant.jpg,SPACE,1,,,,,,,,,,,,,,,,,,,,,,,,,,,,,0,9,9,3,,,,,,,,,,,,,,,,,,,,,,,,,,,,,,,,,,,,,,,,,,,,,,,,,,,,,,,,,,,,,,,,,,,130.04038649983704,3060.956606599968,3062.9602924000937,3060.956606599968,3062.9602924000937,3061.9530110000633,3062.9564904000144,3061.9530110000633,3062.9564904000144,3062.9564904000144,None,136.04288499988616,3066.9560990999453,None,3066.9560990999453,None,3,0.9468028999399394,3066.9560990999453,None,3072.955175800016,None,,,,,,,,,,,,,,,,,,,,,,,,,,,,,,,,,,,,,,,,,,1103,001,2,UA,2022_Feb_18_1342,task_complete_blocked_LC_updated,2021.2.3,239.20583636832805,
stimulus_images/AARTPLANT.jpg,SPACE,0,,,,,,,,,,,,,,,,,,,,,,,,,,,,,,,,,0,0,0,6,,,,,,,,,,,,,,,,,,,,,,,,,,,,,,,,,,,,,,,,,,,,,,,,,,,,,,,,,,,,,,,144.05087479995564,3074.9741742000915,3076.9733078000136,3074.9741742000915,3076.9733078000136,3075.9691910999827,3076.970031199977,3075.9691910999827,3076.970031199977,3076.970031199977,None,150.04762309999205,3080.961054299958,None,3080.961054299958,None,1,0.5526619998272508,3080.961054299958,None,3086.957934200065,None,,,,,,,,,,,,,,,,,,,,,,,,,,,,,,,,,,,,,,,,,,1103,001,2,UA,2022_Feb_18_1342,task_complete_blocked_LC_updated,2021.2.3,239.20583636832805,
stimulus_images/Abrooch100.jpg,SPACE,0,,,,,,,,,,,,,,,,,,,,,,,,,,,,,,,,,0,1,1,9,,,,,,,,,,,,,,,,,,,,,,,,,,,,,,,,,,,,,,,,,,,,,,,,,,,,,,,,,,,,,,,158.04913809988648,3088.9726295999717,3090.9745668999385,3088.9726295999717,3090.9745668999385,3089.9687749999575,3090.9711267999373,3089.9687749999575,3090.9711267999373,3090.9711267999373,None,164.05202089995146,3094.9664018000476,None,3094.9664018000476,None,3,0.33651579986326396,3094.9664018000476,None,3100.9670530001167,None,,,,,,,,,,,,,,,,,,,,,,,,,,,,,,,,,,,,,,,,,,1103,001,2,UA,2022_Feb_18_1342,task_complete_blocked_LC_updated,2021.2.3,239.20583636832805,
stimulus_images/AAEROBENC.jpg,SPACE,0,,,,,,,,,,,,,,,,,,,,,,,,,,,,,,,,,0,2,2,4,,,,,,,,,,,,,,,,,,,,,,,,,,,,,,,,,,,,,,,,,,,,,,,,,,,,,,,,,,,,,,,171.05728619988076,3101.980635300046,3103.9805900999345,3101.980635300046,3103.9805900999345,3102.977833400015,3103.9805900999345,3102.977833400015,3103.9805900999345,3103.9805900999345,None,177.0597092998214,3107.974173899973,None,3107.974173899973,None,3,0.7514904998242855,3107.974173899973,None,3113.9719491000287,None,,,,,,,,,,,,,,,,,,,,,,,,,,,,,,,,,,,,,,,,,,1103,001,2,UA,2022_Feb_18_1342,task_complete_blocked_LC_updated,2021.2.3,239.20583636832805,
stimulus_images/AANTFRYI2.jpg,SPACE,0,,,,,,,,,,,,,,,,,,,,,,,,,,,,,,,,,0,3,3,5,,,,,,,,,,,,,,,,,,,,,,,,,,,,,,,,,,,,,,,,,,,,,,,,,,,,,,,,,,,,,,,184.0614893999882,3114.978837199975,3116.977885100059,3114.978837199975,3116.977885100059,3115.9731038999744,3116.9756543000694,3115.9731038999744,3116.9756543000694,3116.9717413999606,None,190.06157699995674,3120.9794785999693,None,3120.9794785999693,None,4,1.4485167998354882,3120.9794785999693,None,3126.974641200155,None,,,,,,,,,,,,,,,,,,,,,,,,,,,,,,,,,,,,,,,,,,1103,001,2,UA,2022_Feb_18_1342,task_complete_blocked_LC_updated,2021.2.3,239.20583636832805,
stimulus_images/ABISHOP2.jpg,SPACE,0,,,,,,,,,,,,,,,,,,,,,,,,,,,,,,,,,0,4,4,8,,,,,,,,,,,,,,,,,,,,,,,,,,,,,,,,,,,,,,,,,,,,,,,,,,,,,,,,,,,,,,,198.06545819994062,3128.981511299964,3130.9868882000446,3128.981511299964,3130.9868882000446,3129.9784886999987,3130.981397200143,3129.9784886999987,3130.981397200143,3130.981397200143,None,204.0690550999716,3134.983103600098,None,3134.983103600098,None,2,1.2200887000653893,3134.983103600098,None,3140.9826351001393,None,,,,,,,,,,,,,,,,,,,,,,,,,,,,,,,,,,,,,,,,,,1103,001,2,UA,2022_Feb_18_1342,task_complete_blocked_LC_updated,2021.2.3,239.20583636832805,
stimulus_images/pencil-a.jpg,SPACE,0,,,,,,,,,,,,,,,,,,,,,,,,,,,,,,,,,0,5,5,2,,,,,,,,,,,,,,,,,,,,,,,,,,,,,,,,,,,,,,,,,,,,,,,,,,,,,,,,,,,,,,,211.0703447998967,3141.992561500054,3143.99073900003,3141.992561500054,3143.99073900003,3142.9918144999538,3143.99073900003,3142.9918144999538,3143.99073900003,3143.99073900003,None,217.07270549982786,3147.98613500013,None,3147.98613500013,None,4,0.7428229001816362,3147.98613500013,None,3153.9890729000326,None,,,,,,,,,,,,,,,,,,,,,,,,,,,,,,,,,,,,,,,,,,1103,001,2,UA,2022_Feb_18_1342,task_complete_blocked_LC_updated,2021.2.3,239.20583636832805,
stimulus_images/Abananasundae.jpg,SPACE,1,,,,,,,,,,,,,,,,,,,,,,,,,,,,,,,,,0,6,6,7,,,,,,,,,,,,,,,,,,,,,,,,,,,,,,,,,,,,,,,,,,,,,,,,,,,,,,,,,,,,,,,225.07891219994053,3156.00126420008,3158.004048400093,3156.00126420008,3158.004048400093,3157.0049405000173,3158.004048400093,3157.0049405000173,3158.004048400093,3158.0010341000743,None,231.08108439994976,3161.994558500126,None,3161.994558500126,None,3,1.0316671000327915,3161.994558500126,None,3167.9959488001186,None,,,,,,,,,,,,,,,,,,,,,,,,,,,,,,,,,,,,,,,,,,1103,001,2,UA,2022_Feb_18_1342,task_complete_blocked_LC_updated,2021.2.3,239.20583636832805,
stimulus_images/Awatch28.jpg,SPACE,1,,,,,,,,,,,,,,,,,,,,,,,,,,,,,,,,,0,7,7,1,,,,,,,,,,,,,,,,,,,,,,,,,,,,,,,,,,,,,,,,,,,,,,,,,,,,,,,,,,,,,,,239.08688039984554,3170.0102317000274,3172.0124786000233,3170.0102317000274,3172.0124786000233,3171.007776600076,3172.0087850999553,3171.007776600076,3172.0087850999553,3172.0087850999553,None,245.08955359994434,3176.0030476001557,None,3176.0030476001557,None,4,0.4131181000266224,3176.0030476001557,None,3182.00487100007,None,,,,,,,,,,,,,,,,,,,,,,,,,,,,,,,,,,,,,,,,,,1103,001,2,UA,2022_Feb_18_1342,task_complete_blocked_LC_updated,2021.2.3,239.20583636832805,
stimulus_images/A_teabag.jpg,SPACE,1,,,,,,,,,,,,,,,,,,,,,,,,,,,,,,,,,0,8,8,3,,,,,,,,,,,,,,,,,,,,,,,,,,,,,,,,,,,,,,,,,,,,,,,,,,,,,,,,,,,,,,,252.09530499996617,3183.0174008000176,3185.0178976999596,3183.0174008000176,3185.0178976999596,3184.0155798001215,3185.0178976999596,3184.0155798001215,3185.0178976999596,3185.0124999999534,None,258.09777459991165,3189.01675550011,None,3189.01675550011,None,4,0.4911140000913292,3189.01675550011,None,3195.012591399951,None,,,,,,,,,,,,,,,,,,,,,,,,,,,,,,,,,,,,,,,,,,1103,001,2,UA,2022_Feb_18_1342,task_complete_blocked_LC_updated,2021.2.3,239.20583636832805,
stimulus_images/ASEWINGT4.jpg,SPACE,0,,,,,,,,,,,,,,,,,,,,,,,,,,,,,,,,,0,9,9,0,,,,,,,,,,,,,,,,,,,,,,,,,,,,,,,,,,,,,,,,,,,,,,,,,,,,,,,,,,,,,,,266.1039003999904,3197.0270605001133,3199.027811100008,3197.0270605001133,3199.027811100008,3198.0239099001046,3199.0238324000966,3198.0239099001046,3199.0238324000966,3199.0238324000966,None,272.1067482000217,3203.0207851000596,None,3203.0207851000596,None,1,0.7953196000307798,3203.0207851000596,None,3209.0208640999626,None,,,,,,,,,,,,,,,,,,,,,,,,,,,,,,,,,,,,,,,,,,1103,001,2,UA,2022_Feb_18_1342,task_complete_blocked_LC_updated,2021.2.3,239.20583636832805,
,,,O,2,,,,,,,,,,,,,,,,,,,,,,,,,,,,,,,,,,,0,0,0,1,,,,,,,,,,,,,,,,,,,,,,,,,,,,,,,,,,,,,,,,,,,,,,,,,,,,,,,,,,,,,,,,,,,,,,,,,,,,,,,,,3211.025215300033,None,3214.032482499955,3214.9828493001405,None,0,3214.032482499955,3214.9828493001405,3214.9792565000243,None,,,,,,,,,,,,,,,,,,,,,,,,,,,,,,,,1103,001,2,UA,2022_Feb_18_1342,task_complete_blocked_LC_updated,2021.2.3,239.20583636832805,
,,,X,1,,,,,,,,,,,,,,,,,,,,,,,,,,,,,,,,,,,0,1,1,0,,,,,,,,,,,,,,,,,,,,,,,,,,,,,,,,,,,,,,,,,,,,,,,,,,,,,,,,,,,,,,,,,,,,,,,,,,,,,,,,,,,3215.028974100016,3215.983455999987,None,0,3215.028974100016,3215.983455999987,3215.979580900166,None,,,,,,,,,,,,,,,,,,,,,,,,,,,,,,,,1103,001,2,UA,2022_Feb_18_1342,task_complete_blocked_LC_updated,2021.2.3,239.20583636832805,
,,,O,2,,,,,,,,,,,,,,,,,,,,,,,,,,,,,,,,,,,1,0,2,1,,,,,,,,,,,,,,,,,,,,,,,,,,,,,,,,,,,,,,,,,,,,,,,,,,,,,,,,,,,,,,,,,,,,,,,,,,,,,,,,,,,3216.0295609000605,3216.978163599968,2,1,3216.0295609000605,3216.978163599968,3216.974747600034,None,0.4002395998686552,,,,,,,,,,,,,,,,,,,,,,,,,,,,,,,1103,001,2,UA,2022_Feb_18_1342,task_complete_blocked_LC_updated,2021.2.3,239.20583636832805,
,,,X,1,,,,,,,,,,,,,,,,,,,,,,,,,,,,,,,,,,,1,1,3,0,,,,,,,,,,,,,,,,,,,,,,,,,,,,,,,,,,,,,,,,,,,,,,,,,,,,,,,,,,,,,,,,,,,,,,,,,,,,,,,,,,,3217.0268451999873,3217.9778329001274,1,1,3217.0268451999873,3217.9778329001274,3217.9748466999736,3217.0268451999873,0.2591270999982953,,,,,,,,,,,,,,,,,,,,,,,,,,,,,,,1103,001,2,UA,2022_Feb_18_1342,task_complete_blocked_LC_updated,2021.2.3,239.20583636832805,
,,,O,2,,,,,,,,,,,,,,,,,,,,,,,,,,,,,,,,,,,2,0,4,1,,,,,,,,,,,,,,,,,,,,,,,,,,,,,,,,,,,,,,,,,,,,,,,,,,,,,,,,,,,,,,,,,,,,,,,,,,,,,,,,,,,3218.0305727999657,3218.9780825001653,2,1,3218.0305727999657,3218.9780825001653,3218.975520099979,None,0.2872854000888765,,,,,,,,,,,,,,,,,,,,,,,,,,,,,,,1103,001,2,UA,2022_Feb_18_1342,task_complete_blocked_LC_updated,2021.2.3,239.20583636832805,
,,,X,1,,,,,,,,,,,,,,,,,,,,,,,,,,,,,,,,,,,2,1,5,0,,,,,,,,,,,,,,,,,,,,,,,,,,,,,,,,,,,,,,,,,,,,,,,,,,,,,,,,,,,,,,,,,,,,,,,,,,,,,,,,,,,3219.029293600004,3219.982998599997,1,1,3219.029293600004,3219.982998599997,3219.9755108000245,None,0.22064139996655285,,,,,,,,,,,,,,,,,,,,,,,,,,,,,,,1103,001,2,UA,2022_Feb_18_1342,task_complete_blocked_LC_updated,2021.2.3,239.20583636832805,
,,,X,1,,,,,,,,,,,,,,,,,,,,,,,,,,,,,,,,,,,3,0,6,0,,,,,,,,,,,,,,,,,,,,,,,,,,,,,,,,,,,,,,,,,,,,,,,,,,,,,,,,,,,,,,,,,,,,,,,,,,,,,,,,,,,3220.0323369000107,3220.983539100038,2,0,3220.0323369000107,3220.983539100038,3220.9740657000802,None,0.20364149985834956,,,,,,,,,,,,,,,,,,,,,,,,,,,,,,,1103,001,2,UA,2022_Feb_18_1342,task_complete_blocked_LC_updated,2021.2.3,239.20583636832805,
,,,O,2,,,,,,,,,,,,,,,,,,,,,,,,,,,,,,,,,,,3,1,7,1,,,,,,,,,,,,,,,,,,,,,,,,,,,,,,,,,,,,,,,,,,,,,,,,,,,,,,,,,,,,,,,,,,,,,,,,,,,,,,,,,,,3221.026268100133,3221.978009500075,2,1,3221.026268100133,3221.978009500075,3221.978009500075,3221.026268100133,0.45855119987390935,,,,,,,,,,,,,,,,,,,,,,,,,,,,,,,1103,001,2,UA,2022_Feb_18_1342,task_complete_blocked_LC_updated,2021.2.3,239.20583636832805,
,,,O,2,,,,,,,,,,,,,,,,,,,,,,,,,,,,,,,,,,,4,0,8,1,,,,,,,,,,,,,,,,,,,,,,,,,,,,,,,,,,,,,,,,,,,,,,,,,,,,,,,,,,,,,,,,,,,,,,,,,,,,,,,,,,,3222.027925600065,3222.9769727000967,2,1,3222.027925600065,3222.9769727000967,3222.9735517001245,None,0.5501498999074101,,,,,,,,,,,,,,,,,,,,,,,,,,,,,,,1103,001,2,UA,2022_Feb_18_1342,task_complete_blocked_LC_updated,2021.2.3,239.20583636832805,
,,,X,1,,,,,,,,,,,,,,,,,,,,,,,,,,,,,,,,,,,4,1,9,0,,,,,,,,,,,,,,,,,,,,,,,,,,,,,,,,,,,,,,,,,,,,,,,,,,,,,,,,,,,,,,,,,,,,,,,,,,,,,,,,,,,3223.0265689000953,3223.974902200047,1,1,3223.0265689000953,3223.974902200047,3223.974902200047,3223.0265689000953,0.4635536000132561,,,,,,,,,,,,,,,,,,,,,,,,,,,,,,,1103,001,2,UA,2022_Feb_18_1342,task_complete_blocked_LC_updated,2021.2.3,239.20583636832805,
,,,O,2,,,,,,,,,,,,,,,,,,,,,,,,,,,,,,,,,,,5,0,10,1,,,,,,,,,,,,,,,,,,,,,,,,,,,,,,,,,,,,,,,,,,,,,,,,,,,,,,,,,,,,,,,,,,,,,,,,,,,,,,,,,,,3224.0287526000757,3224.979762900155,2,1,3224.0287526000757,3224.979762900155,3224.9766899000388,None,0.4402669998817146,,,,,,,,,,,,,,,,,,,,,,,,,,,,,,,1103,001,2,UA,2022_Feb_18_1342,task_complete_blocked_LC_updated,2021.2.3,239.20583636832805,
,,,X,1,,,,,,,,,,,,,,,,,,,,,,,,,,,,,,,,,,,5,1,11,0,,,,,,,,,,,,,,,,,,,,,,,,,,,,,,,,,,,,,,,,,,,,,,,,,,,,,,,,,,,,,,,,,,,,,,,,,,,,,,,,,,,3225.028812299948,3225.989303600043,1,1,3225.028812299948,3225.989303600043,3225.9847665000707,None,0.4763807998970151,,,,,,,,,,,,,,,,,,,,,,,,,,,,,,,1103,001,2,UA,2022_Feb_18_1342,task_complete_blocked_LC_updated,2021.2.3,239.20583636832805,
,,,X,1,,,,,,,,,,,,,,,,,,,,,,,,,,,,,,,,,,,6,0,12,0,,,,,,,,,,,,,,,,,,,,,,,,,,,,,,,,,,,,,,,,,,,,,,,,,,,,,,,,,,,,,,,,,,,,,,,,,,,,,,,,,,,3226.028890500078,3226.979528099997,1,1,3226.028890500078,3226.979528099997,3226.9761242000386,None,0.49493160005658865,,,,,,,,,,,,,,,,,,,,,,,,,,,,,,,1103,001,2,UA,2022_Feb_18_1342,task_complete_blocked_LC_updated,2021.2.3,239.20583636832805,
,,,O,2,,,,,,,,,,,,,,,,,,,,,,,,,,,,,,,,,,,6,1,13,1,,,,,,,,,,,,,,,,,,,,,,,,,,,,,,,,,,,,,,,,,,,,,,,,,,,,,,,,,,,,,,,,,,,,,,,,,,,,,,,,,,,3227.0288887000643,3227.9806526999455,2,1,3227.0288887000643,3227.9806526999455,3227.9777154000476,None,0.4548732000403106,,,,,,,,,,,,,,,,,,,,,,,,,,,,,,,1103,001,2,UA,2022_Feb_18_1342,task_complete_blocked_LC_updated,2021.2.3,239.20583636832805,
,,,O,2,,,,,,,,,,,,,,,,,,,,,,,,,,,,,,,,,,,7,0,14,1,,,,,,,,,,,,,,,,,,,,,,,,,,,,,,,,,,,,,,,,,,,,,,,,,,,,,,,,,,,,,,,,,,,,,,,,,,,,,,,,,,,3228.028233200079,3228.97630570014,2,1,3228.028233200079,3228.97630570014,3228.9731994001195,None,0.43796869996003807,,,,,,,,,,,,,,,,,,,,,,,,,,,,,,,1103,001,2,UA,2022_Feb_18_1342,task_complete_blocked_LC_updated,2021.2.3,239.20583636832805,
,,,X,1,,,,,,,,,,,,,,,,,,,,,,,,,,,,,,,,,,,7,1,15,0,,,,,,,,,,,,,,,,,,,,,,,,,,,,,,,,,,,,,,,,,,,,,,,,,,,,,,,,,,,,,,,,,,,,,,,,,,,,,,,,,,,3229.0269766000565,3229.9765329000074,1,1,3229.0269766000565,3229.9765329000074,3229.9765329000074,3229.0269766000565,0.3956995999906212,,,,,,,,,,,,,,,,,,,,,,,,,,,,,,,1103,001,2,UA,2022_Feb_18_1342,task_complete_blocked_LC_updated,2021.2.3,239.20583636832805,
,,,X,1,,,,,,,,,,,,,,,,,,,,,,,,,,,,,,,,,,,8,0,16,0,,,,,,,,,,,,,,,,,,,,,,,,,,,,,,,,,,,,,,,,,,,,,,,,,,,,,,,,,,,,,,,,,,,,,,,,,,,,,,,,,,,3230.0270599001087,3230.9810665000696,1,1,3230.0270599001087,3230.9810665000696,3230.971702600131,None,0.3679589000530541,,,,,,,,,,,,,,,,,,,,,,,,,,,,,,,1103,001,2,UA,2022_Feb_18_1342,task_complete_blocked_LC_updated,2021.2.3,239.20583636832805,
,,,O,2,,,,,,,,,,,,,,,,,,,,,,,,,,,,,,,,,,,8,1,17,1,,,,,,,,,,,,,,,,,,,,,,,,,,,,,,,,,,,,,,,,,,,,,,,,,,,,,,,,,,,,,,,,,,,,,,,,,,,,,,,,,,,3231.0276212000754,3231.981483000098,2,1,3231.0276212000754,3231.981483000098,3231.978054400068,3231.0276212000754,0.3350259999278933,,,,,,,,,,,,,,,,,,,,,,,,,,,,,,,1103,001,2,UA,2022_Feb_18_1342,task_complete_blocked_LC_updated,2021.2.3,239.20583636832805,
,,,O,2,,,,,,,,,,,,,,,,,,,,,,,,,,,,,,,,,,,9,0,18,1,,,,,,,,,,,,,,,,,,,,,,,,,,,,,,,,,,,,,,,,,,,,,,,,,,,,,,,,,,,,,,,,,,,,,,,,,,,,,,,,,,,3232.0331503001507,3232.983205599943,2,1,3232.0331503001507,3232.983205599943,3232.9798634001054,None,0.3732177000492811,,,,,,,,,,,,,,,,,,,,,,,,,,,,,,,1103,001,2,UA,2022_Feb_18_1342,task_complete_blocked_LC_updated,2021.2.3,239.20583636832805,
,,,X,1,,,,,,,,,,,,,,,,,,,,,,,,,,,,,,,,,,,9,1,19,0,,,,,,,,,,,,,,,,,,,,,,,,,,,,,,,,,,,,,,,,,,,,,,,,,,,,,,,,,,,,,,,,,,,,,,,,,,,,,,,,,,,3233.0290006999858,3233.980920500122,1,1,3233.0290006999858,3233.980920500122,3233.9773198999465,None,0.43640300002880394,,,,,,,,,,,,,,,,,,,,,,,,,,,,,,,1103,001,2,UA,2022_Feb_18_1342,task_complete_blocked_LC_updated,2021.2.3,239.20583636832805,
,,,O,2,,,,,,,,,,,,,,,,,,,,,,,,,,,,,,,,,,,10,0,20,1,,,,,,,,,,,,,,,,,,,,,,,,,,,,,,,,,,,,,,,,,,,,,,,,,,,,,,,,,,,,,,,,,,,,,,,,,,,,,,,,,,,3234.029877900146,3234.981073200004,2,1,3234.029877900146,3234.981073200004,3234.978250999935,None,0.4814820000901818,,,,,,,,,,,,,,,,,,,,,,,,,,,,,,,1103,001,2,UA,2022_Feb_18_1342,task_complete_blocked_LC_updated,2021.2.3,239.20583636832805,
,,,X,1,,,,,,,,,,,,,,,,,,,,,,,,,,,,,,,,,,,10,1,21,0,,,,,,,,,,,,,,,,,,,,,,,,,,,,,,,,,,,,,,,,,,,,,,,,,,,,,,,,,,,,,,,,,,,,,,,,,,,,,,,,,,,3235.034650699934,3235.98574490007,1,1,3235.034650699934,3235.98574490007,3235.9824364001397,None,0.28324869996868074,,,,,,,,,,,,,,,,,,,,,,,,,,,,,,,1103,001,2,UA,2022_Feb_18_1342,task_complete_blocked_LC_updated,2021.2.3,239.20583636832805,
,,,O,2,,,,,,,,,,,,,,,,,,,,,,,,,,,,,,,,,,,11,0,22,1,,,,,,,,,,,,,,,,,,,,,,,,,,,,,,,,,,,,,,,,,,,,,,,,,,,,,,,,,,,,,,,,,,,,,,,,,,,,,,,,,,,3236.0295743001625,3236.985401400132,2,1,3236.0295743001625,3236.985401400132,3236.9806568999775,None,0.22575360001064837,,,,,,,,,,,,,,,,,,,,,,,,,,,,,,,1103,001,2,UA,2022_Feb_18_1342,task_complete_blocked_LC_updated,2021.2.3,239.20583636832805,
,,,X,1,,,,,,,,,,,,,,,,,,,,,,,,,,,,,,,,,,,11,1,23,0,,,,,,,,,,,,,,,,,,,,,,,,,,,,,,,,,,,,,,,,,,,,,,,,,,,,,,,,,,,,,,,,,,,,,,,,,,,,,,,,,,,3237.0277712000534,3237.98243990005,1,1,3237.0277712000534,3237.98243990005,3237.9754886999726,None,0.3699546998832375,,,,,,,,,,,,,,,,,,,,,,,,,,,,,,,1103,001,2,UA,2022_Feb_18_1342,task_complete_blocked_LC_updated,2021.2.3,239.20583636832805,
,,,O,2,,,,,,,,,,,,,,,,,,,,,,,,,,,,,,,,,,,12,0,24,1,,,,,,,,,,,,,,,,,,,,,,,,,,,,,,,,,,,,,,,,,,,,,,,,,,,,,,,,,,,,,,,,,,,,,,,,,,,,,,,,,,,3238.0290040001273,3238.979340699967,2,1,3238.0290040001273,3238.979340699967,3238.976243100129,None,0.29120430001057684,,,,,,,,,,,,,,,,,,,,,,,,,,,,,,,1103,001,2,UA,2022_Feb_18_1342,task_complete_blocked_LC_updated,2021.2.3,239.20583636832805,
,,,X,1,,,,,,,,,,,,,,,,,,,,,,,,,,,,,,,,,,,12,1,25,0,,,,,,,,,,,,,,,,,,,,,,,,,,,,,,,,,,,,,,,,,,,,,,,,,,,,,,,,,,,,,,,,,,,,,,,,,,,,,,,,,,,3239.029284700053,3239.9790332000703,1,1,3239.029284700053,3239.9790332000703,3239.976117100101,None,0.3076069999951869,,,,,,,,,,,,,,,,,,,,,,,,,,,,,,,1103,001,2,UA,2022_Feb_18_1342,task_complete_blocked_LC_updated,2021.2.3,239.20583636832805,
,,,X,1,,,,,,,,,,,,,,,,,,,,,,,,,,,,,,,,,,,13,0,26,0,,,,,,,,,,,,,,,,,,,,,,,,,,,,,,,,,,,,,,,,,,,,,,,,,,,,,,,,,,,,,,,,,,,,,,,,,,,,,,,,,,,3240.03315449995,3240.9837238001637,2,0,3240.03315449995,3240.9837238001637,3240.9741303001065,None,0.273770600091666,,,,,,,,,,,,,,,,,,,,,,,,,,,,,,,1103,001,2,UA,2022_Feb_18_1342,task_complete_blocked_LC_updated,2021.2.3,239.20583636832805,
,,,O,2,,,,,,,,,,,,,,,,,,,,,,,,,,,,,,,,,,,13,1,27,1,,,,,,,,,,,,,,,,,,,,,,,,,,,,,,,,,,,,,,,,,,,,,,,,,,,,,,,,,,,,,,,,,,,,,,,,,,,,,,,,,,,3241.0274919001386,3241.98907599994,2,1,3241.0274919001386,3241.98907599994,3241.9815555000678,3241.0274919001386,0.7432330001611263,,,,,,,,,,,,,,,,,,,,,,,,,,,,,,,1103,001,2,UA,2022_Feb_18_1342,task_complete_blocked_LC_updated,2021.2.3,239.20583636832805,
,,,O,2,,,,,,,,,,,,,,,,,,,,,,,,,,,,,,,,,,,14,0,28,1,,,,,,,,,,,,,,,,,,,,,,,,,,,,,,,,,,,,,,,,,,,,,,,,,,,,,,,,,,,,,,,,,,,,,,,,,,,,,,,,,,,3242.030096499948,3242.9792192000896,None,0,3242.030096499948,3242.9792192000896,3242.9756603999995,None,,,,,,,,,,,,,,,,,,,,,,,,,,,,,,,,1103,001,2,UA,2022_Feb_18_1342,task_complete_blocked_LC_updated,2021.2.3,239.20583636832805,
,,,X,1,,,,,,,,,,,,,,,,,,,,,,,,,,,,,,,,,,,14,1,29,0,,,,,,,,,,,,,,,,,,,,,,,,,,,,,,,,,,,,,,,,,,,,,,,,,,,,,,,,,,,,,,,,,,,,,,,,,,,,,,,,,,,3243.0294115999714,3243.9823058000766,1,1,3243.0294115999714,3243.9823058000766,3243.9788586001378,None,0.6585281000006944,,,,,,,,,,,,,,,,,,,,,,,,,,,,,,,1103,001,2,UA,2022_Feb_18_1342,task_complete_blocked_LC_updated,2021.2.3,239.20583636832805,
,,,X,1,,,,,,,,,,,,,,,,,,,,,,,,,,,,,,,,,,,15,0,30,0,,,,,,,,,,,,,,,,,,,,,,,,,,,,,,,,,,,,,,,,,,,,,,,,,,,,,,,,,,,,,,,,,,,,,,,,,,,,,,,,,,,3244.028119200142,3244.97979150014,1,1,3244.028119200142,3244.97979150014,3244.976389700081,None,0.7467308000195771,,,,,,,,,,,,,,,,,,,,,,,,,,,,,,,1103,001,2,UA,2022_Feb_18_1342,task_complete_blocked_LC_updated,2021.2.3,239.20583636832805,
,,,O,2,,,,,,,,,,,,,,,,,,,,,,,,,,,,,,,,,,,15,1,31,1,,,,,,,,,,,,,,,,,,,,,,,,,,,,,,,,,,,,,,,,,,,,,,,,,,,,,,,,,,,,,,,,,,,,,,,,,,,,,,,,,,,3245.028901200043,3245.978935000021,2,1,3245.028901200043,3245.978935000021,3245.978935000021,None,0.5532179998699576,,,,,,,,,,,,,,,,,,,,,,,,,,,,,,,1103,001,2,UA,2022_Feb_18_1342,task_complete_blocked_LC_updated,2021.2.3,239.20583636832805,
