stimImg,taskType,audTrial,letter,correctResponse,familiarCorrect,sourceCorrect,encode_trials1.thisRepN,encode_trials1.thisTrialN,encode_trials1.thisN,encode_trials1.thisIndex,encode_trials2.thisRepN,encode_trials2.thisTrialN,encode_trials2.thisN,encode_trials2.thisIndex,distractor.thisRepN,distractor.thisTrialN,distractor.thisN,distractor.thisIndex,encode_trials3.thisRepN,encode_trials3.thisTrialN,encode_trials3.thisN,encode_trials3.thisIndex,encode_trials4.thisRepN,encode_trials4.thisTrialN,encode_trials4.thisN,encode_trials4.thisIndex,distractor_2.thisRepN,distractor_2.thisTrialN,distractor_2.thisN,distractor_2.thisIndex,encode_trials5.thisRepN,encode_trials5.thisTrialN,encode_trials5.thisN,encode_trials5.thisIndex,encode_trials6.thisRepN,encode_trials6.thisTrialN,encode_trials6.thisN,encode_trials6.thisIndex,distractor3.thisRepN,distractor3.thisTrialN,distractor3.thisN,distractor3.thisIndex,encode_trials7.thisRepN,encode_trials7.thisTrialN,encode_trials7.thisN,encode_trials7.thisIndex,encode_trials8.thisRepN,encode_trials8.thisTrialN,encode_trials8.thisN,encode_trials8.thisIndex,distractor4.thisRepN,distractor4.thisTrialN,distractor4.thisN,distractor4.thisIndex,retrieval_trials1.thisRepN,retrieval_trials1.thisTrialN,retrieval_trials1.thisN,retrieval_trials1.thisIndex,retrieval_trials2.thisRepN,retrieval_trials2.thisTrialN,retrieval_trials2.thisN,retrieval_trials2.thisIndex,retrieval_trials3.thisRepN,retrieval_trials3.thisTrialN,retrieval_trials3.thisN,retrieval_trials3.thisIndex,retrieval_trials4.thisRepN,retrieval_trials4.thisTrialN,retrieval_trials4.thisN,retrieval_trials4.thisIndex,button_check_1.started,button_check_1.stopped,button_check_resp_1.keys,button_check_resp_1.rt,button_check_resp_1.started,button_check_resp_1.stopped,text_2.started,text_2.stopped,key_resp_3.keys,key_resp_3.rt,key_resp_3.started,key_resp_3.stopped,text_3.started,text_3.stopped,key_resp_4.keys,key_resp_4.rt,key_resp_4.started,key_resp_4.stopped,text_4.started,text_4.stopped,key_resp_5.keys,key_resp_5.rt,key_resp_5.started,key_resp_5.stopped,wait_text.started,wait_text.stopped,scanner_pulse.keys,scanner_pulse.rt,scanner_pulse.started,scanner_pulse.stopped,Trial_cue_onset,instruction.started,instruction.stopped,image_3.started,image_3.stopped,in_.started,in_.stopped,source_cue.started,source_cue.stopped,fixation.started,fixation.stopped,Response_cue_onset,rating.started,rating.stopped,text.started,text.stopped,rating_resp.keys,rating_resp.rt,rating_resp.started,rating_resp.stopped,text_16.started,text_16.stopped,instruc.started,instruc.stopped,distractor_task.started,distractor_task.stopped,distractor_task_resp.keys,distractor_task_resp.corr,distractor_task_resp.rt,distractor_task_resp.started,distractor_task_resp.stopped,flicker.started,flicker.stopped,end_screen.started,end_screen.stopped,spacebar_press.keys,spacebar_press.rt,spacebar_press.started,spacebar_press.stopped,one_moment.started,one_moment.stopped,Trial_familiarity_onset,item_rec.started,item_rec.stopped,image_4.started,image_4.stopped,item_rec_guide.started,item_rec_guide.stopped,item_rec_resp.keys,item_rec_resp.corr,item_rec_resp.rt,item_rec_resp.started,item_rec_resp.stopped,Trial_source_onset,source_rec.started,source_rec.stopped,source_rec_resp.keys,source_rec_resp.corr,source_rec_resp.rt,source_rec_resp.started,source_rec_resp.stopped,text_14.started,text_14.stopped,participant,session,group,university,date,expName,psychopyVersion,frameRate,
,,,,,,,,,,,,,,,,,,,,,,,,,,,,,,,,,,,,,,,,,,,,,,,,,,,,,,,,,,,,,,,,,,,,,,,15.71148409997113,None,1,1.4524396000197157,15.71148409997113,None,,,,,,,,,,,,,,,,,,,,,,,,,,,,,,,,,,,,,,,,,,,,,,,,,,,,,,,,,,,,,,,,,,,,,,,,,,,,,,,,,,,,,,,,1301_t1,001,4,1,2022_Mar_17_1251,task_complete_blocked_LC_updated,2021.2.3,241.0434284320785,
,,,,,,,,,,,,,,,,,,,,,,,,,,,,,,,,,,,,,,,,,,,,,,,,,,,,,,,,,,,,,,,,,,,,,,,,,,,,,17.174256299971603,None,2,0.9801095000002533,17.174256299971603,None,,,,,,,,,,,,,,,,,,,,,,,,,,,,,,,,,,,,,,,,,,,,,,,,,,,,,,,,,,,,,,,,,,,,,,,,,,,,,,,,,,1301_t1,001,4,1,2022_Mar_17_1251,task_complete_blocked_LC_updated,2021.2.3,241.0434284320785,
,,,,,,,,,,,,,,,,,,,,,,,,,,,,,,,,,,,,,,,,,,,,,,,,,,,,,,,,,,,,,,,,,,,,,,,,,,,,,,,,,,,18.162019899929874,None,3,0.8774540000595152,18.162019899929874,None,,,,,,,,,,,,,,,,,,,,,,,,,,,,,,,,,,,,,,,,,,,,,,,,,,,,,,,,,,,,,,,,,,,,,,,,,,,,1301_t1,001,4,1,2022_Mar_17_1251,task_complete_blocked_LC_updated,2021.2.3,241.0434284320785,
,,,,,,,,,,,,,,,,,,,,,,,,,,,,,,,,,,,,,,,,,,,,,,,,,,,,,,,,,,,,,,,,,,,,,,,,,,,,,,,,,,,,,,,,,19.045587299973704,None,4,19.75379410001915,19.045587299973704,None,,,,,,,,,,,,,,,,,,,,,,,,,,,,,,,,,,,,,,,,,,,,,,,,,,,,,,,,,,,,,,,,,,,,,,1301_t1,001,4,1,2022_Mar_17_1251,task_complete_blocked_LC_updated,2021.2.3,241.0434284320785,
,,,,,,,,,,,,,,,,,,,,,,,,,,,,,,,,,,,,,,,,,,,,,,,,,,,,,,,,,,,,,,,,,,,,,,,,,,,,,,,,,,,,,,,,,,,,,,,38.80794580001384,None,5,61.6072545000352,38.80794580001384,None,,,,,,,,,,,,,,,,,,,,,,,,,,,,,,,,,,,,,,,,,,,,,,,,,,,,,,,,,,,,,,,,1301_t1,001,4,1,2022_Mar_17_1251,task_complete_blocked_LC_updated,2021.2.3,241.0434284320785,
stimulus_images/ACANDLE30.jpg,TIME,0,,,,,0,0,0,7,,,,,,,,,,,,,,,,,,,,,,,,,,,,,,,,,,,,,,,,,,,,,,,,,,,,,,,,,,,,,,,,,,,,,,,,,,,,,,,,,,,,,,,,,,,2.500019036233425e-06,100.46530679997522,102.46547109994572,100.46530679997522,102.46547109994572,101.46710150002036,102.46547109994572,101.46710150002036,102.46547109994572,102.46284019993618,None,5.975054500042461,106.43041739996988,None,106.43041739996988,None,2,5.119564599939622,106.43041739996988,None,112.42639469995629,None,,,,,,,,,,,,,,,,,,,,,,,,,,,,,,,,,,,,,,,,,,1301_t1,001,4,1,2022_Mar_17_1251,task_complete_blocked_LC_updated,2021.2.3,241.0434284320785,
stimulus_images/Abeaver.jpg,TIME,0,,,,,0,1,1,5,,,,,,,,,,,,,,,,,,,,,,,,,,,,,,,,,,,,,,,,,,,,,,,,,,,,,,,,,,,,,,,,,,,,,,,,,,,,,,,,,,,,,,,,,,,12.975029800087214,113.4419554999331,115.44340660003945,113.4419554999331,115.44340660003945,114.4371907999739,115.43980339996051,114.4371907999739,115.43980339996051,115.43589790002443,None,18.97746810002718,119.43389829993248,None,119.43389829993248,None,3,1.3033053999533877,119.43389829993248,None,125.43201769993175,None,,,,,,,,,,,,,,,,,,,,,,,,,,,,,,,,,,,,,,,,,,1301_t1,001,4,1,2022_Mar_17_1251,task_complete_blocked_LC_updated,2021.2.3,241.0434284320785,
stimulus_images/ABALLBEAR.jpg,TIME,0,,,,,0,2,2,4,,,,,,,,,,,,,,,,,,,,,,,,,,,,,,,,,,,,,,,,,,,,,,,,,,,,,,,,,,,,,,,,,,,,,,,,,,,,,,,,,,,,,,,,,,,26.97944320004899,127.44036549993325,129.44222399999853,127.44036549993325,129.44222399999853,128.43652939994354,129.43759310001042,128.43652939994354,129.43759310001042,129.43759310001042,None,32.98175410006661,133.43667419999838,None,133.43667419999838,None,1,1.6585569001035765,133.43667419999838,None,139.44004100002348,None,,,,,,,,,,,,,,,,,,,,,,,,,,,,,,,,,,,,,,,,,,1301_t1,001,4,1,2022_Mar_17_1251,task_complete_blocked_LC_updated,2021.2.3,241.0434284320785,
stimulus_images/Abottleofbat2.jpg,TIME,1,,,,,0,3,3,6,,,,,,,,,,,,,,,,,,,,,,,,,,,,,,,,,,,,,,,,,,,,,,,,,,,,,,,,,,,,,,,,,,,,,,,,,,,,,,,,,,,,,,,,,,,39.98759760009125,140.45212519995403,142.45200049993582,140.45212519995403,142.45200049993582,141.45322759996634,142.45200049993582,141.45322759996634,142.45200049993582,142.4483669999754,None,45.99007350008469,146.4446511999704,None,146.4446511999704,None,3,1.3362020999193192,146.4446511999704,None,152.4431686999742,None,,,,,,,,,,,,,,,,,,,,,,,,,,,,,,,,,,,,,,,,,,1301_t1,001,4,1,2022_Mar_17_1251,task_complete_blocked_LC_updated,2021.2.3,241.0434284320785,
stimulus_images/A56THUND4.jpg,TIME,0,,,,,0,4,4,1,,,,,,,,,,,,,,,,,,,,,,,,,,,,,,,,,,,,,,,,,,,,,,,,,,,,,,,,,,,,,,,,,,,,,,,,,,,,,,,,,,,,,,,,,,,54.99183269997593,155.44991700001992,157.4507147000404,155.44991700001992,157.4507147000404,156.446564199985,157.44749799999408,156.446564199985,157.44749799999408,157.44331030000467,None,60.99194500001613,161.44634100003168,None,161.44634100003168,None,4,0.497631200007163,161.44634100003168,None,167.44752659997903,None,,,,,,,,,,,,,,,,,,,,,,,,,,,,,,,,,,,,,,,,,,1301_t1,001,4,1,2022_Mar_17_1251,task_complete_blocked_LC_updated,2021.2.3,241.0434284320785,
stimulus_images/Aammonitefo14.jpg,TIME,1,,,,,0,5,5,2,,,,,,,,,,,,,,,,,,,,,,,,,,,,,,,,,,,,,,,,,,,,,,,,,,,,,,,,,,,,,,,,,,,,,,,,,,,,,,,,,,,,,,,,,,,69.99616660003085,170.4623531999532,172.46351639996283,170.4623531999532,172.46351639996283,171.45729679998476,172.45630540000275,171.45729679998476,172.45630540000275,172.45630540000275,None,75.99867700005416,176.45333589997608,None,176.45333589997608,None,4,0.4907391999149695,176.45333589997608,None,182.45610129996203,None,,,,,,,,,,,,,,,,,,,,,,,,,,,,,,,,,,,,,,,,,,1301_t1,001,4,1,2022_Mar_17_1251,task_complete_blocked_LC_updated,2021.2.3,241.0434284320785,
stimulus_images/Acocktailumb4.jpg,TIME,0,,,,,0,6,6,8,,,,,,,,,,,,,,,,,,,,,,,,,,,,,,,,,,,,,,,,,,,,,,,,,,,,,,,,,,,,,,,,,,,,,,,,,,,,,,,,,,,,,,,,,,,84.00412509997841,184.4710070999572,186.47003810002934,184.4710070999572,186.47003810002934,185.46601410000585,186.47003810002934,185.46601410000585,186.47003810002934,186.4662871999899,None,90.00743380002677,190.4659713000292,None,190.4659713000292,None,2,0.39488450007047504,190.4659713000292,None,196.4602343000006,None,,,,,,,,,,,,,,,,,,,,,,,,,,,,,,,,,,,,,,,,,,1301_t1,001,4,1,2022_Mar_17_1251,task_complete_blocked_LC_updated,2021.2.3,241.0434284320785,
stimulus_images/A_coin.jpg,TIME,0,,,,,0,7,7,0,,,,,,,,,,,,,,,,,,,,,,,,,,,,,,,,,,,,,,,,,,,,,,,,,,,,,,,,,,,,,,,,,,,,,,,,,,,,,,,,,,,,,,,,,,,97.00867100001778,197.46687929995824,199.46919650002383,197.46687929995824,199.46919650002383,198.46221679996233,199.4660229999572,198.46221679996233,199.4660229999572,199.46121300000232,None,103.00884420005605,203.46332979993895,None,203.46332979993895,None,4,0.3827905999496579,203.46332979993895,None,209.46494590002112,None,,,,,,,,,,,,,,,,,,,,,,,,,,,,,,,,,,,,,,,,,,1301_t1,001,4,1,2022_Mar_17_1251,task_complete_blocked_LC_updated,2021.2.3,241.0434284320785,
stimulus_images/AARCCHAR2.jpg,TIME,0,,,,,0,8,8,3,,,,,,,,,,,,,,,,,,,,,,,,,,,,,,,,,,,,,,,,,,,,,,,,,,,,,,,,,,,,,,,,,,,,,,,,,,,,,,,,,,,,,,,,,,,111.01263540005311,211.47639530000743,213.47738299996126,211.47639530000743,213.47738299996126,212.47482909995597,213.47738299996126,212.47482909995597,213.47738299996126,213.4734340000432,None,117.01537040004041,217.47008699993603,None,217.47008699993603,None,4,0.41371829994022846,217.47008699993603,None,223.472492699977,None,,,,,,,,,,,,,,,,,,,,,,,,,,,,,,,,,,,,,,,,,,1301_t1,001,4,1,2022_Mar_17_1251,task_complete_blocked_LC_updated,2021.2.3,241.0434284320785,
stimulus_images/ADRYWOOD.jpg,TIME,0,,,,,0,9,9,9,,,,,,,,,,,,,,,,,,,,,,,,,,,,,,,,,,,,,,,,,,,,,,,,,,,,,,,,,,,,,,,,,,,,,,,,,,,,,,,,,,,,,,,,,,,125.02137800003402,225.4870257000439,227.48901210003532,225.4870257000439,227.48901210003532,226.48270199995022,227.48901210003532,226.48270199995022,227.48901210003532,227.48502639995422,None,131.0248465000186,231.47958499996457,None,231.47958499996457,None,4,0.36045609996654093,231.47958499996457,None,237.4757405000273,None,,,,,,,,,,,,,,,,,,,,,,,,,,,,,,,,,,,,,,,,,,1301_t1,001,4,1,2022_Mar_17_1251,task_complete_blocked_LC_updated,2021.2.3,241.0434284320785,
stimulus_images/weddingdress.jpg,TIME,0,,,,,,,,,0,0,0,6,,,,,,,,,,,,,,,,,,,,,,,,,,,,,,,,,,,,,,,,,,,,,,,,,,,,,,,,,,,,,,,,,,,,,,,,,,,,,,,,,,,,,,,138.03129600000102,238.48871469998267,240.4884643999394,238.48871469998267,240.4884643999394,239.48681359994225,240.4884643999394,239.48681359994225,240.4884643999394,240.48479969997425,None,144.02831389999483,244.48326190002263,None,244.48326190002263,None,2,0.4630389000521973,244.48326190002263,None,250.48873770004138,None,,,,,,,,,,,,,,,,,,,,,,,,,,,,,,,,,,,,,,,,,,1301_t1,001,4,1,2022_Mar_17_1251,task_complete_blocked_LC_updated,2021.2.3,241.0434284320785,
stimulus_images/AHIGCHAIR.jpg,TIME,0,,,,,,,,,0,1,1,1,,,,,,,,,,,,,,,,,,,,,,,,,,,,,,,,,,,,,,,,,,,,,,,,,,,,,,,,,,,,,,,,,,,,,,,,,,,,,,,,,,,,,,,151.03763060003985,251.50258189998567,253.50612629996613,251.50258189998567,253.50612629996613,252.49932830000762,253.50066070002504,252.49932830000762,253.50066070002504,253.50066070002504,None,157.04062320000958,257.49529879994225,None,257.49529879994225,None,4,0.4604319999925792,257.49529879994225,None,263.49236429994926,None,,,,,,,,,,,,,,,,,,,,,,,,,,,,,,,,,,,,,,,,,,1301_t1,001,4,1,2022_Mar_17_1251,task_complete_blocked_LC_updated,2021.2.3,241.0434284320785,
stimulus_images/AMUSISTA2.jpg,TIME,0,,,,,,,,,0,2,2,2,,,,,,,,,,,,,,,,,,,,,,,,,,,,,,,,,,,,,,,,,,,,,,,,,,,,,,,,,,,,,,,,,,,,,,,,,,,,,,,,,,,,,,,164.03794720000587,264.5033145999769,266.5051979999989,264.5033145999769,266.5051979999989,265.49994889996015,266.50105940003414,265.49994889996015,266.50105940003414,266.50105940003414,None,170.04141840001103,270.49661809997633,None,270.49661809997633,None,1,0.33408490009605885,270.49661809997633,None,276.49408229999244,None,,,,,,,,,,,,,,,,,,,,,,,,,,,,,,,,,,,,,,,,,,1301_t1,001,4,1,2022_Mar_17_1251,task_complete_blocked_LC_updated,2021.2.3,241.0434284320785,
stimulus_images/Aancientston3.jpg,TIME,0,,,,,,,,,0,3,3,9,,,,,,,,,,,,,,,,,,,,,,,,,,,,,,,,,,,,,,,,,,,,,,,,,,,,,,,,,,,,,,,,,,,,,,,,,,,,,,,,,,,,,,,178.04235030000564,278.50612209993415,280.5062060999917,278.50612209993415,280.5062060999917,279.50463390001096,280.5062060999917,279.50463390001096,280.5062060999917,280.50312250002753,None,184.0448932000436,284.49947589996736,None,284.49947589996736,None,3,2.11675980000291,284.49947589996736,None,290.49868530000094,None,,,,,,,,,,,,,,,,,,,,,,,,,,,,,,,,,,,,,,,,,,1301_t1,001,4,1,2022_Mar_17_1251,task_complete_blocked_LC_updated,2021.2.3,241.0434284320785,
stimulus_images/AGLASSFL4.jpg,TIME,1,,,,,,,,,0,4,4,0,,,,,,,,,,,,,,,,,,,,,,,,,,,,,,,,,,,,,,,,,,,,,,,,,,,,,,,,,,,,,,,,,,,,,,,,,,,,,,,,,,,,,,,192.04619060002733,292.50426519999746,294.5023448000429,292.50426519999746,294.5023448000429,293.50391019997187,294.5023448000429,293.50391019997187,294.5023448000429,294.4997823999729,None,198.04690339998342,298.5014078000095,None,298.5014078000095,None,3,0.35355270002037287,298.5014078000095,None,304.5073434000369,None,,,,,,,,,,,,,,,,,,,,,,,,,,,,,,,,,,,,,,,,,,1301_t1,001,4,1,2022_Mar_17_1251,task_complete_blocked_LC_updated,2021.2.3,241.0434284320785,
stimulus_images/A_flower.jpg,TIME,0,,,,,,,,,0,5,5,7,,,,,,,,,,,,,,,,,,,,,,,,,,,,,,,,,,,,,,,,,,,,,,,,,,,,,,,,,,,,,,,,,,,,,,,,,,,,,,,,,,,,,,,207.05503869999666,307.5127369000111,309.5118220000295,307.5127369000111,309.5118220000295,308.5123204999836,309.5118220000295,308.5123204999836,309.5118220000295,309.5118220000295,None,213.05753280001227,313.5139285000041,None,313.5139285000041,None,4,0.4278619000688195,313.5139285000041,None,319.51625570002943,None,,,,,,,,,,,,,,,,,,,,,,,,,,,,,,,,,,,,,,,,,,1301_t1,001,4,1,2022_Mar_17_1251,task_complete_blocked_LC_updated,2021.2.3,241.0434284320785,
stimulus_images/beanbagchair.jpg,TIME,0,,,,,,,,,0,6,6,5,,,,,,,,,,,,,,,,,,,,,,,,,,,,,,,,,,,,,,,,,,,,,,,,,,,,,,,,,,,,,,,,,,,,,,,,,,,,,,,,,,,,,,,221.0636247000657,321.528117400012,323.5279737999663,321.528117400012,323.5279737999663,322.5259592999937,323.5279737999663,322.5259592999937,323.5279737999663,323.52438069996424,None,227.06594230001792,327.5208793999627,None,327.5208793999627,None,4,0.6263632000191137,327.5208793999627,None,333.519888299983,None,,,,,,,,,,,,,,,,,,,,,,,,,,,,,,,,,,,,,,,,,,1301_t1,001,4,1,2022_Mar_17_1251,task_complete_blocked_LC_updated,2021.2.3,241.0434284320785,
stimulus_images/Aribbon21.jpg,TIME,0,,,,,,,,,0,7,7,3,,,,,,,,,,,,,,,,,,,,,,,,,,,,,,,,,,,,,,,,,,,,,,,,,,,,,,,,,,,,,,,,,,,,,,,,,,,,,,,,,,,,,,,236.06705830001738,336.5311353999423,338.5317024999531,336.5311353999423,338.5317024999531,337.52506919996813,338.5272073999513,337.52506919996813,338.5272073999513,338.5272073999513,None,242.07028970005922,342.5300028999336,None,342.5300028999336,None,3,0.458175600040704,342.5300028999336,None,348.5236480999738,None,,,,,,,,,,,,,,,,,,,,,,,,,,,,,,,,,,,,,,,,,,1301_t1,001,4,1,2022_Mar_17_1251,task_complete_blocked_LC_updated,2021.2.3,241.0434284320785,
stimulus_images/Astereo30.jpg,TIME,1,,,,,,,,,0,8,8,4,,,,,,,,,,,,,,,,,,,,,,,,,,,,,,,,,,,,,,,,,,,,,,,,,,,,,,,,,,,,,,,,,,,,,,,,,,,,,,,,,,,,,,,251.0699324000161,351.5278251999989,353.52914180001244,351.5278251999989,353.52914180001244,352.52102240000386,353.52207800000906,352.52102240000386,353.52207800000906,353.52207800000906,None,257.0696318000555,357.5241888000164,None,357.5241888000164,None,4,1.3645048000616953,357.5241888000164,None,363.52408939995803,None,,,,,,,,,,,,,,,,,,,,,,,,,,,,,,,,,,,,,,,,,,1301_t1,001,4,1,2022_Mar_17_1251,task_complete_blocked_LC_updated,2021.2.3,241.0434284320785,
stimulus_images/AABSTRACT.jpg,TIME,1,,,,,,,,,0,9,9,8,,,,,,,,,,,,,,,,,,,,,,,,,,,,,,,,,,,,,,,,,,,,,,,,,,,,,,,,,,,,,,,,,,,,,,,,,,,,,,,,,,,,,,,266.07280229998287,366.5308373000007,368.53021600004286,366.5308373000007,368.53021600004286,367.52499019994866,368.5271209999919,367.52499019994866,368.5271209999919,368.5271209999919,None,272.0745328000048,372.5291556000011,None,372.5291556000011,None,3,0.3766691000200808,372.5291556000011,None,378.53199809999205,None,,,,,,,,,,,,,,,,,,,,,,,,,,,,,,,,,,,,,,,,,,1301_t1,001,4,1,2022_Mar_17_1251,task_complete_blocked_LC_updated,2021.2.3,241.0434284320785,
,,,X,1,,,,,,,,,,,0,0,0,0,,,,,,,,,,,,,,,,,,,,,,,,,,,,,,,,,,,,,,,,,,,,,,,,,,,,,,,,,,,,,,,,,,,,,,,,,,,,,,,,,,,,,,,,,,,,,,,,,,,,,,,,,380.53499439998996,None,383.55487849994097,384.5075248000212,1,1,0.8026860000099987,383.55487849994097,384.5075248000212,384.50427839998156,None,,,,,,,,,,,,,,,,,,,,,,,,,,,,,,,1301_t1,001,4,1,2022_Mar_17_1251,task_complete_blocked_LC_updated,2021.2.3,241.0434284320785,
,,,O,2,,,,,,,,,,,0,1,1,1,,,,,,,,,,,,,,,,,,,,,,,,,,,,,,,,,,,,,,,,,,,,,,,,,,,,,,,,,,,,,,,,,,,,,,,,,,,,,,,,,,,,,,,,,,,,,,,,,,,,,,,,,,,384.5394193000393,385.4896425999468,2,1,0.49220610002521425,384.5394193000393,385.4896425999468,385.4896425999468,None,,,,,,,,,,,,,,,,,,,,,,,,,,,,,,,1301_t1,001,4,1,2022_Mar_17_1251,task_complete_blocked_LC_updated,2021.2.3,241.0434284320785,
,,,X,1,,,,,,,,,,,1,0,2,0,,,,,,,,,,,,,,,,,,,,,,,,,,,,,,,,,,,,,,,,,,,,,,,,,,,,,,,,,,,,,,,,,,,,,,,,,,,,,,,,,,,,,,,,,,,,,,,,,,,,,,,,,,,385.54155980004,386.4935439999681,1,1,0.5131411999464035,385.54155980004,386.4935439999681,386.4845221999567,None,,,,,,,,,,,,,,,,,,,,,,,,,,,,,,,1301_t1,001,4,1,2022_Mar_17_1251,task_complete_blocked_LC_updated,2021.2.3,241.0434284320785,
,,,O,2,,,,,,,,,,,1,1,3,1,,,,,,,,,,,,,,,,,,,,,,,,,,,,,,,,,,,,,,,,,,,,,,,,,,,,,,,,,,,,,,,,,,,,,,,,,,,,,,,,,,,,,,,,,,,,,,,,,,,,,,,,,,,386.53850220004097,387.48941949999426,2,1,0.3722104000626132,386.53850220004097,387.48941949999426,387.4863280999707,None,,,,,,,,,,,,,,,,,,,,,,,,,,,,,,,1301_t1,001,4,1,2022_Mar_17_1251,task_complete_blocked_LC_updated,2021.2.3,241.0434284320785,
,,,O,2,,,,,,,,,,,2,0,4,1,,,,,,,,,,,,,,,,,,,,,,,,,,,,,,,,,,,,,,,,,,,,,,,,,,,,,,,,,,,,,,,,,,,,,,,,,,,,,,,,,,,,,,,,,,,,,,,,,,,,,,,,,,,387.5402357999701,388.4935271999566,2,1,0.43250620004255325,387.5402357999701,388.4935271999566,388.490415200009,None,,,,,,,,,,,,,,,,,,,,,,,,,,,,,,,1301_t1,001,4,1,2022_Mar_17_1251,task_complete_blocked_LC_updated,2021.2.3,241.0434284320785,
,,,X,1,,,,,,,,,,,2,1,5,0,,,,,,,,,,,,,,,,,,,,,,,,,,,,,,,,,,,,,,,,,,,,,,,,,,,,,,,,,,,,,,,,,,,,,,,,,,,,,,,,,,,,,,,,,,,,,,,,,,,,,,,,,,,388.5446416999912,389.49588139995467,1,1,0.4511540000094101,388.5446416999912,389.49588139995467,389.4933120999485,None,,,,,,,,,,,,,,,,,,,,,,,,,,,,,,,1301_t1,001,4,1,2022_Mar_17_1251,task_complete_blocked_LC_updated,2021.2.3,241.0434284320785,
,,,X,1,,,,,,,,,,,3,0,6,0,,,,,,,,,,,,,,,,,,,,,,,,,,,,,,,,,,,,,,,,,,,,,,,,,,,,,,,,,,,,,,,,,,,,,,,,,,,,,,,,,,,,,,,,,,,,,,,,,,,,,,,,,,,389.5445240000263,390.49659580003936,1,1,0.4929217000026256,389.5445240000263,390.49659580003936,390.49263699993026,None,,,,,,,,,,,,,,,,,,,,,,,,,,,,,,,1301_t1,001,4,1,2022_Mar_17_1251,task_complete_blocked_LC_updated,2021.2.3,241.0434284320785,
,,,O,2,,,,,,,,,,,3,1,7,1,,,,,,,,,,,,,,,,,,,,,,,,,,,,,,,,,,,,,,,,,,,,,,,,,,,,,,,,,,,,,,,,,,,,,,,,,,,,,,,,,,,,,,,,,,,,,,,,,,,,,,,,,,,390.53865100000985,391.4935785999987,2,1,0.419266700046137,390.53865100000985,391.4935785999987,391.48334199993405,None,,,,,,,,,,,,,,,,,,,,,,,,,,,,,,,1301_t1,001,4,1,2022_Mar_17_1251,task_complete_blocked_LC_updated,2021.2.3,241.0434284320785,
,,,O,2,,,,,,,,,,,4,0,8,1,,,,,,,,,,,,,,,,,,,,,,,,,,,,,,,,,,,,,,,,,,,,,,,,,,,,,,,,,,,,,,,,,,,,,,,,,,,,,,,,,,,,,,,,,,,,,,,,,,,,,,,,,,,391.5380789999617,392.49066549993586,2,1,0.3567783999023959,391.5380789999617,392.49066549993586,392.48672199994326,None,,,,,,,,,,,,,,,,,,,,,,,,,,,,,,,1301_t1,001,4,1,2022_Mar_17_1251,task_complete_blocked_LC_updated,2021.2.3,241.0434284320785,
,,,X,1,,,,,,,,,,,4,1,9,0,,,,,,,,,,,,,,,,,,,,,,,,,,,,,,,,,,,,,,,,,,,,,,,,,,,,,,,,,,,,,,,,,,,,,,,,,,,,,,,,,,,,,,,,,,,,,,,,,,,,,,,,,,,392.5397706000367,393.489310999983,1,1,0.360135699971579,392.5397706000367,393.489310999983,393.4867994999513,None,,,,,,,,,,,,,,,,,,,,,,,,,,,,,,,1301_t1,001,4,1,2022_Mar_17_1251,task_complete_blocked_LC_updated,2021.2.3,241.0434284320785,
,,,X,1,,,,,,,,,,,5,0,10,0,,,,,,,,,,,,,,,,,,,,,,,,,,,,,,,,,,,,,,,,,,,,,,,,,,,,,,,,,,,,,,,,,,,,,,,,,,,,,,,,,,,,,,,,,,,,,,,,,,,,,,,,,,,393.53764120000415,394.49330009997357,1,1,0.37029429990798235,393.53764120000415,394.49330009997357,394.48811349994503,None,,,,,,,,,,,,,,,,,,,,,,,,,,,,,,,1301_t1,001,4,1,2022_Mar_17_1251,task_complete_blocked_LC_updated,2021.2.3,241.0434284320785,
,,,O,2,,,,,,,,,,,5,1,11,1,,,,,,,,,,,,,,,,,,,,,,,,,,,,,,,,,,,,,,,,,,,,,,,,,,,,,,,,,,,,,,,,,,,,,,,,,,,,,,,,,,,,,,,,,,,,,,,,,,,,,,,,,,,394.5390081999358,395.4922114999499,2,1,0.30278939998243004,394.5390081999358,395.4922114999499,395.4922114999499,None,,,,,,,,,,,,,,,,,,,,,,,,,,,,,,,1301_t1,001,4,1,2022_Mar_17_1251,task_complete_blocked_LC_updated,2021.2.3,241.0434284320785,
,,,O,2,,,,,,,,,,,6,0,12,1,,,,,,,,,,,,,,,,,,,,,,,,,,,,,,,,,,,,,,,,,,,,,,,,,,,,,,,,,,,,,,,,,,,,,,,,,,,,,,,,,,,,,,,,,,,,,,,,,,,,,,,,,,,395.53755499992985,396.4906110999873,2,1,0.2569632000522688,395.53755499992985,396.4906110999873,396.4822492999956,None,,,,,,,,,,,,,,,,,,,,,,,,,,,,,,,1301_t1,001,4,1,2022_Mar_17_1251,task_complete_blocked_LC_updated,2021.2.3,241.0434284320785,
,,,X,1,,,,,,,,,,,6,1,13,0,,,,,,,,,,,,,,,,,,,,,,,,,,,,,,,,,,,,,,,,,,,,,,,,,,,,,,,,,,,,,,,,,,,,,,,,,,,,,,,,,,,,,,,,,,,,,,,,,,,,,,,,,,,396.5368031000253,397.488894399954,1,1,0.35030000004917383,396.5368031000253,397.488894399954,397.4858169000363,396.5368031000253,,,,,,,,,,,,,,,,,,,,,,,,,,,,,,,1301_t1,001,4,1,2022_Mar_17_1251,task_complete_blocked_LC_updated,2021.2.3,241.0434284320785,
,,,O,2,,,,,,,,,,,7,0,14,1,,,,,,,,,,,,,,,,,,,,,,,,,,,,,,,,,,,,,,,,,,,,,,,,,,,,,,,,,,,,,,,,,,,,,,,,,,,,,,,,,,,,,,,,,,,,,,,,,,,,,,,,,,,397.53844479995314,398.4884064999642,2,1,0.4394774000393227,397.53844479995314,398.4884064999642,398.48531100002583,None,,,,,,,,,,,,,,,,,,,,,,,,,,,,,,,1301_t1,001,4,1,2022_Mar_17_1251,task_complete_blocked_LC_updated,2021.2.3,241.0434284320785,
,,,X,1,,,,,,,,,,,7,1,15,0,,,,,,,,,,,,,,,,,,,,,,,,,,,,,,,,,,,,,,,,,,,,,,,,,,,,,,,,,,,,,,,,,,,,,,,,,,,,,,,,,,,,,,,,,,,,,,,,,,,,,,,,,,,398.53882899996825,399.48838330002036,1,1,0.342394599923864,398.53882899996825,399.48838330002036,399.48522759997286,None,,,,,,,,,,,,,,,,,,,,,,,,,,,,,,,1301_t1,001,4,1,2022_Mar_17_1251,task_complete_blocked_LC_updated,2021.2.3,241.0434284320785,
,,,X,1,,,,,,,,,,,8,0,16,0,,,,,,,,,,,,,,,,,,,,,,,,,,,,,,,,,,,,,,,,,,,,,,,,,,,,,,,,,,,,,,,,,,,,,,,,,,,,,,,,,,,,,,,,,,,,,,,,,,,,,,,,,,,399.5418803000357,400.4919062999543,1,1,0.427830700064078,399.5418803000357,400.4919062999543,400.48376890004147,None,,,,,,,,,,,,,,,,,,,,,,,,,,,,,,,1301_t1,001,4,1,2022_Mar_17_1251,task_complete_blocked_LC_updated,2021.2.3,241.0434284320785,
,,,O,2,,,,,,,,,,,8,1,17,1,,,,,,,,,,,,,,,,,,,,,,,,,,,,,,,,,,,,,,,,,,,,,,,,,,,,,,,,,,,,,,,,,,,,,,,,,,,,,,,,,,,,,,,,,,,,,,,,,,,,,,,,,,,400.5391722000204,401.49375699996017,2,1,0.3005191000411287,400.5391722000204,401.49375699996017,401.4911921999883,400.5391722000204,,,,,,,,,,,,,,,,,,,,,,,,,,,,,,,1301_t1,001,4,1,2022_Mar_17_1251,task_complete_blocked_LC_updated,2021.2.3,241.0434284320785,
,,,O,2,,,,,,,,,,,9,0,18,1,,,,,,,,,,,,,,,,,,,,,,,,,,,,,,,,,,,,,,,,,,,,,,,,,,,,,,,,,,,,,,,,,,,,,,,,,,,,,,,,,,,,,,,,,,,,,,,,,,,,,,,,,,,401.54501999996137,402.49737019999884,2,1,0.28355509997345507,401.54501999996137,402.49737019999884,402.49355569994077,None,,,,,,,,,,,,,,,,,,,,,,,,,,,,,,,1301_t1,001,4,1,2022_Mar_17_1251,task_complete_blocked_LC_updated,2021.2.3,241.0434284320785,
,,,X,1,,,,,,,,,,,9,1,19,0,,,,,,,,,,,,,,,,,,,,,,,,,,,,,,,,,,,,,,,,,,,,,,,,,,,,,,,,,,,,,,,,,,,,,,,,,,,,,,,,,,,,,,,,,,,,,,,,,,,,,,,,,,,402.5392587999813,403.49237719993107,1,1,0.3675804000813514,402.5392587999813,403.49237719993107,403.4834851999767,None,,,,,,,,,,,,,,,,,,,,,,,,,,,,,,,1301_t1,001,4,1,2022_Mar_17_1251,task_complete_blocked_LC_updated,2021.2.3,241.0434284320785,
,,,O,2,,,,,,,,,,,10,0,20,1,,,,,,,,,,,,,,,,,,,,,,,,,,,,,,,,,,,,,,,,,,,,,,,,,,,,,,,,,,,,,,,,,,,,,,,,,,,,,,,,,,,,,,,,,,,,,,,,,,,,,,,,,,,403.5365194999613,404.4889055000385,2,1,0.4403370999498293,403.5365194999613,404.4889055000385,404.48353970004246,403.5365194999613,,,,,,,,,,,,,,,,,,,,,,,,,,,,,,,1301_t1,001,4,1,2022_Mar_17_1251,task_complete_blocked_LC_updated,2021.2.3,241.0434284320785,
,,,X,1,,,,,,,,,,,10,1,21,0,,,,,,,,,,,,,,,,,,,,,,,,,,,,,,,,,,,,,,,,,,,,,,,,,,,,,,,,,,,,,,,,,,,,,,,,,,,,,,,,,,,,,,,,,,,,,,,,,,,,,,,,,,,404.53529120003805,405.4849074999802,1,1,0.3076062999898568,404.53529120003805,405.4849074999802,405.4815573999658,404.53529120003805,,,,,,,,,,,,,,,,,,,,,,,,,,,,,,,1301_t1,001,4,1,2022_Mar_17_1251,task_complete_blocked_LC_updated,2021.2.3,241.0434284320785,
,,,O,2,,,,,,,,,,,11,0,22,1,,,,,,,,,,,,,,,,,,,,,,,,,,,,,,,,,,,,,,,,,,,,,,,,,,,,,,,,,,,,,,,,,,,,,,,,,,,,,,,,,,,,,,,,,,,,,,,,,,,,,,,,,,,405.5345914999489,406.4863216000376,2,1,0.33988179999869317,405.5345914999489,406.4863216000376,406.482867200044,405.5345914999489,,,,,,,,,,,,,,,,,,,,,,,,,,,,,,,1301_t1,001,4,1,2022_Mar_17_1251,task_complete_blocked_LC_updated,2021.2.3,241.0434284320785,
,,,X,1,,,,,,,,,,,11,1,23,0,,,,,,,,,,,,,,,,,,,,,,,,,,,,,,,,,,,,,,,,,,,,,,,,,,,,,,,,,,,,,,,,,,,,,,,,,,,,,,,,,,,,,,,,,,,,,,,,,,,,,,,,,,,406.53656080004293,407.4900067000417,1,1,0.29429840005468577,406.53656080004293,407.4900067000417,407.48574609996285,406.53656080004293,,,,,,,,,,,,,,,,,,,,,,,,,,,,,,,1301_t1,001,4,1,2022_Mar_17_1251,task_complete_blocked_LC_updated,2021.2.3,241.0434284320785,
,,,O,2,,,,,,,,,,,12,0,24,1,,,,,,,,,,,,,,,,,,,,,,,,,,,,,,,,,,,,,,,,,,,,,,,,,,,,,,,,,,,,,,,,,,,,,,,,,,,,,,,,,,,,,,,,,,,,,,,,,,,,,,,,,,,407.5393633999629,408.49416250002105,2,1,0.41645939997397363,407.5393633999629,408.49416250002105,408.4870886999415,None,,,,,,,,,,,,,,,,,,,,,,,,,,,,,,,1301_t1,001,4,1,2022_Mar_17_1251,task_complete_blocked_LC_updated,2021.2.3,241.0434284320785,
,,,X,1,,,,,,,,,,,12,1,25,0,,,,,,,,,,,,,,,,,,,,,,,,,,,,,,,,,,,,,,,,,,,,,,,,,,,,,,,,,,,,,,,,,,,,,,,,,,,,,,,,,,,,,,,,,,,,,,,,,,,,,,,,,,,408.53669630002696,409.48935689998325,1,1,0.3380311999935657,408.53669630002696,409.48935689998325,409.48512730002403,None,,,,,,,,,,,,,,,,,,,,,,,,,,,,,,,1301_t1,001,4,1,2022_Mar_17_1251,task_complete_blocked_LC_updated,2021.2.3,241.0434284320785,
,,,X,1,,,,,,,,,,,13,0,26,0,,,,,,,,,,,,,,,,,,,,,,,,,,,,,,,,,,,,,,,,,,,,,,,,,,,,,,,,,,,,,,,,,,,,,,,,,,,,,,,,,,,,,,,,,,,,,,,,,,,,,,,,,,,409.53769160003867,410.48911810002755,1,1,0.3094293000176549,409.53769160003867,410.48911810002755,410.48616209998727,None,,,,,,,,,,,,,,,,,,,,,,,,,,,,,,,1301_t1,001,4,1,2022_Mar_17_1251,task_complete_blocked_LC_updated,2021.2.3,241.0434284320785,
,,,O,2,,,,,,,,,,,13,1,27,1,,,,,,,,,,,,,,,,,,,,,,,,,,,,,,,,,,,,,,,,,,,,,,,,,,,,,,,,,,,,,,,,,,,,,,,,,,,,,,,,,,,,,,,,,,,,,,,,,,,,,,,,,,,410.5388076000381,411.48961930000223,2,1,0.27009050000924617,410.5388076000381,411.48961930000223,411.4861504000146,None,,,,,,,,,,,,,,,,,,,,,,,,,,,,,,,1301_t1,001,4,1,2022_Mar_17_1251,task_complete_blocked_LC_updated,2021.2.3,241.0434284320785,
,,,O,2,,,,,,,,,,,14,0,28,1,,,,,,,,,,,,,,,,,,,,,,,,,,,,,,,,,,,,,,,,,,,,,,,,,,,,,,,,,,,,,,,,,,,,,,,,,,,,,,,,,,,,,,,,,,,,,,,,,,,,,,,,,,,411.53748409997206,412.49104819993954,2,1,0.25475490000098944,411.53748409997206,412.49104819993954,412.4869999999646,411.53748409997206,,,,,,,,,,,,,,,,,,,,,,,,,,,,,,,1301_t1,001,4,1,2022_Mar_17_1251,task_complete_blocked_LC_updated,2021.2.3,241.0434284320785,
,,,X,1,,,,,,,,,,,14,1,29,0,,,,,,,,,,,,,,,,,,,,,,,,,,,,,,,,,,,,,,,,,,,,,,,,,,,,,,,,,,,,,,,,,,,,,,,,,,,,,,,,,,,,,,,,,,,,,,,,,,,,,,,,,,,412.53851700003725,413.4944187999936,1,1,0.3320760000497103,412.53851700003725,413.4944187999936,413.4908410999924,None,,,,,,,,,,,,,,,,,,,,,,,,,,,,,,,1301_t1,001,4,1,2022_Mar_17_1251,task_complete_blocked_LC_updated,2021.2.3,241.0434284320785,
,,,X,1,,,,,,,,,,,15,0,30,0,,,,,,,,,,,,,,,,,,,,,,,,,,,,,,,,,,,,,,,,,,,,,,,,,,,,,,,,,,,,,,,,,,,,,,,,,,,,,,,,,,,,,,,,,,,,,,,,,,,,,,,,,,,413.53771019994747,414.4880631000269,1,1,0.38903079996816814,413.53771019994747,414.4880631000269,414.4838649999583,None,,,,,,,,,,,,,,,,,,,,,,,,,,,,,,,1301_t1,001,4,1,2022_Mar_17_1251,task_complete_blocked_LC_updated,2021.2.3,241.0434284320785,
,,,O,2,,,,,,,,,,,15,1,31,1,,,,,,,,,,,,,,,,,,,,,,,,,,,,,,,,,,,,,,,,,,,,,,,,,,,,,,,,,,,,,,,,,,,,,,,,,,,,,,,,,,,,,,,,,,,,,,,,,,,,,,,,,,,414.53626710001845,415.4860878000036,2,1,0.20421990007162094,414.53626710001845,415.4860878000036,415.48265120002907,414.53626710001845,,,,,,,,,,,,,,,,,,,,,,,,,,,,,,,1301_t1,001,4,1,2022_Mar_17_1251,task_complete_blocked_LC_updated,2021.2.3,241.0434284320785,
,,,O,2,,,,,,,,,,,16,0,32,1,,,,,,,,,,,,,,,,,,,,,,,,,,,,,,,,,,,,,,,,,,,,,,,,,,,,,,,,,,,,,,,,,,,,,,,,,,,,,,,,,,,,,,,,,,,,,,,,,,,,,,,,,,,415.53603840002324,416.4885980000254,2,1,0.3107289000181481,415.53603840002324,416.4885980000254,416.48493579996284,415.53603840002324,,,,,,,,,,,,,,,,,,,,,,,,,,,,,,,1301_t1,001,4,1,2022_Mar_17_1251,task_complete_blocked_LC_updated,2021.2.3,241.0434284320785,
,,,X,1,,,,,,,,,,,16,1,33,0,,,,,,,,,,,,,,,,,,,,,,,,,,,,,,,,,,,,,,,,,,,,,,,,,,,,,,,,,,,,,,,,,,,,,,,,,,,,,,,,,,,,,,,,,,,,,,,,,,,,,,,,,,,416.5426921999315,417.4950037000235,1,1,0.19112650002352893,416.5426921999315,417.4950037000235,417.4916497999802,None,,,,,,,,,,,,,,,,,,,,,,,,,,,,,,,1301_t1,001,4,1,2022_Mar_17_1251,task_complete_blocked_LC_updated,2021.2.3,241.0434284320785,
,,,O,2,,,,,,,,,,,17,0,34,1,,,,,,,,,,,,,,,,,,,,,,,,,,,,,,,,,,,,,,,,,,,,,,,,,,,,,,,,,,,,,,,,,,,,,,,,,,,,,,,,,,,,,,,,,,,,,,,,,,,,,,,,,,,417.539422599948,418.4908249999862,2,1,0.4235080999787897,417.539422599948,418.4908249999862,418.48788549995515,None,,,,,,,,,,,,,,,,,,,,,,,,,,,,,,,1301_t1,001,4,1,2022_Mar_17_1251,task_complete_blocked_LC_updated,2021.2.3,241.0434284320785,
,,,X,1,,,,,,,,,,,17,1,35,0,,,,,,,,,,,,,,,,,,,,,,,,,,,,,,,,,,,,,,,,,,,,,,,,,,,,,,,,,,,,,,,,,,,,,,,,,,,,,,,,,,,,,,,,,,,,,,,,,,,,,,,,,,,418.5386950999964,419.4960478999419,None,0,,418.5386950999964,419.4960478999419,419.49316379998345,None,,,,,,,,,,,,,,,,,,,,,,,,,,,,,,,1301_t1,001,4,1,2022_Mar_17_1251,task_complete_blocked_LC_updated,2021.2.3,241.0434284320785,
,,,X,1,,,,,,,,,,,18,0,36,0,,,,,,,,,,,,,,,,,,,,,,,,,,,,,,,,,,,,,,,,,,,,,,,,,,,,,,,,,,,,,,,,,,,,,,,,,,,,,,,,,,,,,,,,,,,,,,,,,,,,,,,,,,,419.5378539999947,420.4872307999758,1,1,0.35710330004803836,419.5378539999947,420.4872307999758,420.4838902000338,None,,,,,,,,,,,,,,,,,,,,,,,,,,,,,,,1301_t1,001,4,1,2022_Mar_17_1251,task_complete_blocked_LC_updated,2021.2.3,241.0434284320785,
,,,O,2,,,,,,,,,,,18,1,37,1,,,,,,,,,,,,,,,,,,,,,,,,,,,,,,,,,,,,,,,,,,,,,,,,,,,,,,,,,,,,,,,,,,,,,,,,,,,,,,,,,,,,,,,,,,,,,,,,,,,,,,,,,,,420.53562909993343,421.48807359999046,None,0,,420.53562909993343,421.48807359999046,421.48467759997584,420.53562909993343,,,,,,,,,,,,,,,,,,,,,,,,,,,,,,,1301_t1,001,4,1,2022_Mar_17_1251,task_complete_blocked_LC_updated,2021.2.3,241.0434284320785,
,,,X,1,,,,,,,,,,,19,0,38,0,,,,,,,,,,,,,,,,,,,,,,,,,,,,,,,,,,,,,,,,,,,,,,,,,,,,,,,,,,,,,,,,,,,,,,,,,,,,,,,,,,,,,,,,,,,,,,,,,,,,,,,,,,,421.5392659000354,422.49139380001,1,1,0.4901670999825001,421.5392659000354,422.49139380001,422.48719449993223,None,,,,,,,,,,,,,,,,,,,,,,,,,,,,,,,1301_t1,001,4,1,2022_Mar_17_1251,task_complete_blocked_LC_updated,2021.2.3,241.0434284320785,
,,,O,2,,,,,,,,,,,19,1,39,1,,,,,,,,,,,,,,,,,,,,,,,,,,,,,,,,,,,,,,,,,,,,,,,,,,,,,,,,,,,,,,,,,,,,,,,,,,,,,,,,,,,,,,,,,,,,,,,,,,,,,,,,,,,422.5397434999468,423.4926528999349,2,1,0.2805226999334991,422.5397434999468,423.4926528999349,423.483606099966,None,,,,,,,,,,,,,,,,,,,,,,,,,,,,,,,1301_t1,001,4,1,2022_Mar_17_1251,task_complete_blocked_LC_updated,2021.2.3,241.0434284320785,
,,,X,1,,,,,,,,,,,20,0,40,0,,,,,,,,,,,,,,,,,,,,,,,,,,,,,,,,,,,,,,,,,,,,,,,,,,,,,,,,,,,,,,,,,,,,,,,,,,,,,,,,,,,,,,,,,,,,,,,,,,,,,,,,,,,423.5420149000129,424.4904720999766,1,1,0.37049959995783865,423.5420149000129,424.4904720999766,424.4870742999483,None,,,,,,,,,,,,,,,,,,,,,,,,,,,,,,,1301_t1,001,4,1,2022_Mar_17_1251,task_complete_blocked_LC_updated,2021.2.3,241.0434284320785,
,,,O,2,,,,,,,,,,,20,1,41,1,,,,,,,,,,,,,,,,,,,,,,,,,,,,,,,,,,,,,,,,,,,,,,,,,,,,,,,,,,,,,,,,,,,,,,,,,,,,,,,,,,,,,,,,,,,,,,,,,,,,,,,,,,,424.53903179999907,425.49189209996257,2,1,0.21668660000432283,424.53903179999907,425.49189209996257,425.4892849000171,None,,,,,,,,,,,,,,,,,,,,,,,,,,,,,,,1301_t1,001,4,1,2022_Mar_17_1251,task_complete_blocked_LC_updated,2021.2.3,241.0434284320785,
,,,O,2,,,,,,,,,,,21,0,42,1,,,,,,,,,,,,,,,,,,,,,,,,,,,,,,,,,,,,,,,,,,,,,,,,,,,,,,,,,,,,,,,,,,,,,,,,,,,,,,,,,,,,,,,,,,,,,,,,,,,,,,,,,,,425.5383688999573,426.48977760004345,2,1,0.366091699921526,425.5383688999573,426.48977760004345,426.48200860002544,None,,,,,,,,,,,,,,,,,,,,,,,,,,,,,,,1301_t1,001,4,1,2022_Mar_17_1251,task_complete_blocked_LC_updated,2021.2.3,241.0434284320785,
,,,X,1,,,,,,,,,,,21,1,43,0,,,,,,,,,,,,,,,,,,,,,,,,,,,,,,,,,,,,,,,,,,,,,,,,,,,,,,,,,,,,,,,,,,,,,,,,,,,,,,,,,,,,,,,,,,,,,,,,,,,,,,,,,,,426.5360061000101,427.4889861999545,1,1,0.327928000013344,426.5360061000101,427.4889861999545,427.4847415999975,426.5360061000101,,,,,,,,,,,,,,,,,,,,,,,,,,,,,,,1301_t1,001,4,1,2022_Mar_17_1251,task_complete_blocked_LC_updated,2021.2.3,241.0434284320785,
,,,O,2,,,,,,,,,,,22,0,44,1,,,,,,,,,,,,,,,,,,,,,,,,,,,,,,,,,,,,,,,,,,,,,,,,,,,,,,,,,,,,,,,,,,,,,,,,,,,,,,,,,,,,,,,,,,,,,,,,,,,,,,,,,,,427.5392570999684,428.49014140001964,2,1,0.4284535999177024,427.5392570999684,428.49014140001964,428.48614529997576,None,,,,,,,,,,,,,,,,,,,,,,,,,,,,,,,1301_t1,001,4,1,2022_Mar_17_1251,task_complete_blocked_LC_updated,2021.2.3,241.0434284320785,
,,,X,1,,,,,,,,,,,22,1,45,0,,,,,,,,,,,,,,,,,,,,,,,,,,,,,,,,,,,,,,,,,,,,,,,,,,,,,,,,,,,,,,,,,,,,,,,,,,,,,,,,,,,,,,,,,,,,,,,,,,,,,,,,,,,428.538683700026,429.48821019998286,1,1,0.2800960000604391,428.538683700026,429.48821019998286,429.48496659996454,None,,,,,,,,,,,,,,,,,,,,,,,,,,,,,,,1301_t1,001,4,1,2022_Mar_17_1251,task_complete_blocked_LC_updated,2021.2.3,241.0434284320785,
,,,X,1,,,,,,,,,,,23,0,46,0,,,,,,,,,,,,,,,,,,,,,,,,,,,,,,,,,,,,,,,,,,,,,,,,,,,,,,,,,,,,,,,,,,,,,,,,,,,,,,,,,,,,,,,,,,,,,,,,,,,,,,,,,,,429.5422146000201,430.49630939995404,1,1,0.27703780005685985,429.5422146000201,430.49630939995404,430.48442560003605,None,,,,,,,,,,,,,,,,,,,,,,,,,,,,,,,1301_t1,001,4,1,2022_Mar_17_1251,task_complete_blocked_LC_updated,2021.2.3,241.0434284320785,
,,,O,2,,,,,,,,,,,23,1,47,1,,,,,,,,,,,,,,,,,,,,,,,,,,,,,,,,,,,,,,,,,,,,,,,,,,,,,,,,,,,,,,,,,,,,,,,,,,,,,,,,,,,,,,,,,,,,,,,,,,,,,,,,,,,430.5375789999962,431.48907210002653,2,1,0.3068337000440806,430.5375789999962,431.48907210002653,431.4867860999657,None,,,,,,,,,,,,,,,,,,,,,,,,,,,,,,,1301_t1,001,4,1,2022_Mar_17_1251,task_complete_blocked_LC_updated,2021.2.3,241.0434284320785,
,,,X,1,,,,,,,,,,,24,0,48,0,,,,,,,,,,,,,,,,,,,,,,,,,,,,,,,,,,,,,,,,,,,,,,,,,,,,,,,,,,,,,,,,,,,,,,,,,,,,,,,,,,,,,,,,,,,,,,,,,,,,,,,,,,,431.5385416999925,432.49040090001654,1,1,0.6944447999121621,431.5385416999925,432.49040090001654,432.4867362999357,None,,,,,,,,,,,,,,,,,,,,,,,,,,,,,,,1301_t1,001,4,1,2022_Mar_17_1251,task_complete_blocked_LC_updated,2021.2.3,241.0434284320785,
,,,O,2,,,,,,,,,,,24,1,49,1,,,,,,,,,,,,,,,,,,,,,,,,,,,,,,,,,,,,,,,,,,,,,,,,,,,,,,,,,,,,,,,,,,,,,,,,,,,,,,,,,,,,,,,,,,,,,,,,,,,,,,,,,,,432.5383806999307,433.4905631999718,2,1,0.5075494999764487,432.5383806999307,433.4905631999718,433.48723540001083,None,,,,,,,,,,,,,,,,,,,,,,,,,,,,,,,1301_t1,001,4,1,2022_Mar_17_1251,task_complete_blocked_LC_updated,2021.2.3,241.0434284320785,
,,,X,1,,,,,,,,,,,25,0,50,0,,,,,,,,,,,,,,,,,,,,,,,,,,,,,,,,,,,,,,,,,,,,,,,,,,,,,,,,,,,,,,,,,,,,,,,,,,,,,,,,,,,,,,,,,,,,,,,,,,,,,,,,,,,433.53892520000227,434.48923740000464,None,0,,433.53892520000227,434.48923740000464,434.48706409998704,None,,,,,,,,,,,,,,,,,,,,,,,,,,,,,,,1301_t1,001,4,1,2022_Mar_17_1251,task_complete_blocked_LC_updated,2021.2.3,241.0434284320785,
,,,O,2,,,,,,,,,,,25,1,51,1,,,,,,,,,,,,,,,,,,,,,,,,,,,,,,,,,,,,,,,,,,,,,,,,,,,,,,,,,,,,,,,,,,,,,,,,,,,,,,,,,,,,,,,,,,,,,,,,,,,,,,,,,,,434.5385906000156,435.4920090000378,2,1,0.34145450009964406,434.5385906000156,435.4920090000378,435.48796860000584,None,,,,,,,,,,,,,,,,,,,,,,,,,,,,,,,1301_t1,001,4,1,2022_Mar_17_1251,task_complete_blocked_LC_updated,2021.2.3,241.0434284320785,
,,,O,2,,,,,,,,,,,26,0,52,1,,,,,,,,,,,,,,,,,,,,,,,,,,,,,,,,,,,,,,,,,,,,,,,,,,,,,,,,,,,,,,,,,,,,,,,,,,,,,,,,,,,,,,,,,,,,,,,,,,,,,,,,,,,435.5379266999662,436.4869577999925,2,1,0.48214249999728054,435.5379266999662,436.4869577999925,436.4833899999503,None,,,,,,,,,,,,,,,,,,,,,,,,,,,,,,,1301_t1,001,4,1,2022_Mar_17_1251,task_complete_blocked_LC_updated,2021.2.3,241.0434284320785,
,,,X,1,,,,,,,,,,,26,1,53,0,,,,,,,,,,,,,,,,,,,,,,,,,,,,,,,,,,,,,,,,,,,,,,,,,,,,,,,,,,,,,,,,,,,,,,,,,,,,,,,,,,,,,,,,,,,,,,,,,,,,,,,,,,,436.53661479998846,437.48445510002784,1,1,0.3408537999494001,436.53661479998846,437.48445510002784,437.48445510002784,436.53661479998846,,,,,,,,,,,,,,,,,,,,,,,,,,,,,,,1301_t1,001,4,1,2022_Mar_17_1251,task_complete_blocked_LC_updated,2021.2.3,241.0434284320785,
,,,X,1,,,,,,,,,,,27,0,54,0,,,,,,,,,,,,,,,,,,,,,,,,,,,,,,,,,,,,,,,,,,,,,,,,,,,,,,,,,,,,,,,,,,,,,,,,,,,,,,,,,,,,,,,,,,,,,,,,,,,,,,,,,,,437.5358762999531,438.488421499962,1,1,0.33893039997201413,437.5358762999531,438.488421499962,438.48553079995327,437.5358762999531,,,,,,,,,,,,,,,,,,,,,,,,,,,,,,,1301_t1,001,4,1,2022_Mar_17_1251,task_complete_blocked_LC_updated,2021.2.3,241.0434284320785,
,,,O,2,,,,,,,,,,,27,1,55,1,,,,,,,,,,,,,,,,,,,,,,,,,,,,,,,,,,,,,,,,,,,,,,,,,,,,,,,,,,,,,,,,,,,,,,,,,,,,,,,,,,,,,,,,,,,,,,,,,,,,,,,,,,,438.53897829994094,439.491249899962,2,1,0.26796740002464503,438.53897829994094,439.491249899962,439.4863357000286,None,,,,,,,,,,,,,,,,,,,,,,,,,,,,,,,1301_t1,001,4,1,2022_Mar_17_1251,task_complete_blocked_LC_updated,2021.2.3,241.0434284320785,
,,,O,2,,,,,,,,,,,28,0,56,1,,,,,,,,,,,,,,,,,,,,,,,,,,,,,,,,,,,,,,,,,,,,,,,,,,,,,,,,,,,,,,,,,,,,,,,,,,,,,,,,,,,,,,,,,,,,,,,,,,,,,,,,,,,439.54117149999365,440.4933834000258,2,1,0.3712107000174001,439.54117149999365,440.4933834000258,440.4899654999608,None,,,,,,,,,,,,,,,,,,,,,,,,,,,,,,,1301_t1,001,4,1,2022_Mar_17_1251,task_complete_blocked_LC_updated,2021.2.3,241.0434284320785,
,,,X,1,,,,,,,,,,,28,1,57,0,,,,,,,,,,,,,,,,,,,,,,,,,,,,,,,,,,,,,,,,,,,,,,,,,,,,,,,,,,,,,,,,,,,,,,,,,,,,,,,,,,,,,,,,,,,,,,,,,,,,,,,,,,,440.5383832999505,441.48736859997734,1,1,0.21214369998779148,440.5383832999505,441.48736859997734,441.48459320003167,None,,,,,,,,,,,,,,,,,,,,,,,,,,,,,,,1301_t1,001,4,1,2022_Mar_17_1251,task_complete_blocked_LC_updated,2021.2.3,241.0434284320785,
,,,X,1,,,,,,,,,,,29,0,58,0,,,,,,,,,,,,,,,,,,,,,,,,,,,,,,,,,,,,,,,,,,,,,,,,,,,,,,,,,,,,,,,,,,,,,,,,,,,,,,,,,,,,,,,,,,,,,,,,,,,,,,,,,,,441.5355651000282,442.49276459997054,1,1,0.3125008000060916,441.5355651000282,442.49276459997054,442.48922879993916,441.5355651000282,,,,,,,,,,,,,,,,,,,,,,,,,,,,,,,1301_t1,001,4,1,2022_Mar_17_1251,task_complete_blocked_LC_updated,2021.2.3,241.0434284320785,
,,,O,2,,,,,,,,,,,29,1,59,1,,,,,,,,,,,,,,,,,,,,,,,,,,,,,,,,,,,,,,,,,,,,,,,,,,,,,,,,,,,,,,,,,,,,,,,,,,,,,,,,,,,,,,,,,,,,,,,,,,,,,,,,,,,442.5469413000392,443.4969174999278,2,1,0.3037060999777168,442.5469413000392,443.4969174999278,443.4942911999533,None,,,,,,,,,,,,,,,,,,,,,,,,,,,,,,,1301_t1,001,4,1,2022_Mar_17_1251,task_complete_blocked_LC_updated,2021.2.3,241.0434284320785,
,,,,,,,,,,,,,,,,,,,,,,,,,,,,,,,,,,,,,,,,,,,,,,,,,,,,,,,,,,,,,,,,,,,,,,,,,,,,,,,,,,,,,,,,,,,,,,,,,,,,,,,,,,,,,,,,,,,,,,,,,,,,,,,,,,,,,,443.54226509993896,None,space,29.025036499951966,448.53799099999014,None,,,,,,,,,,,,,,,,,,,,,,,,,1301_t1,001,4,1,2022_Mar_17_1251,task_complete_blocked_LC_updated,2021.2.3,241.0434284320785,
,,,,,,,,,,,,,,,,,,,,,,,,,,,,,,,,,,,,,,,,,,,,,,,,,,,,,,,,,,,,,,,,,,,,,,,,,,,,,,,,,,,,,,,,,,,,,,,477.57255159993656,None,5,11.994738999987021,477.57255159993656,None,,,,,,,,,,,,,,,,,,,,,,,,,,,,,,,,,,,,,,,,448.53799099999014,None,,,,,,,,,,,,,,,,,,,,,,,1301_t1,001,4,1,2022_Mar_17_1251,task_complete_blocked_LC_updated,2021.2.3,241.0434284320785,
stimulus_images/AOTOSCOP5.jpg,SPACE,0,,,,,,,,,,,,,,,,,0,0,0,9,,,,,,,,,,,,,,,,,,,,,,,,,,,,,,,,,,,,,,,,,,,,,,,,,,,,,,,,,,,,,,,,,,,,,,,,,,,,,,,2.6999041438102722e-06,489.59479929995723,491.5964683999773,489.59479929995723,491.5964683999773,490.59353720000945,491.5964683999773,490.59353720000945,491.5964683999773,491.5931007999461,None,5.985883899964392,495.5760070999386,None,495.5760070999386,None,2,1.1266074000159279,495.5760070999386,None,501.57942029996775,None,,,,,,,,,,,,,,,,,,,,,,,,,,,,,,,,,,,,,,,,,,1301_t1,001,4,1,2022_Mar_17_1251,task_complete_blocked_LC_updated,2021.2.3,241.0434284320785,
stimulus_images/Aboxofchocola.jpg,SPACE,0,,,,,,,,,,,,,,,,,0,1,1,3,,,,,,,,,,,,,,,,,,,,,,,,,,,,,,,,,,,,,,,,,,,,,,,,,,,,,,,,,,,,,,,,,,,,,,,,,,,,,,,12.99187039991375,502.5872847000137,504.58740379998926,502.5872847000137,504.58740379998926,503.57979729992803,504.57936420000624,503.57979729992803,504.57936420000624,504.57936420000624,None,18.991678899968974,508.5815223000245,None,508.5815223000245,None,4,0.42602820007596165,508.5815223000245,None,514.5826290999539,None,,,,,,,,,,,,,,,,,,,,,,,,,,,,,,,,,,,,,,,,,,1301_t1,001,4,1,2022_Mar_17_1251,task_complete_blocked_LC_updated,2021.2.3,241.0434284320785,
stimulus_images/AICESKAT8.jpg,SPACE,0,,,,,,,,,,,,,,,,,0,2,2,8,,,,,,,,,,,,,,,,,,,,,,,,,,,,,,,,,,,,,,,,,,,,,,,,,,,,,,,,,,,,,,,,,,,,,,,,,,,,,,,26.995883399969898,516.595182799967,518.595047699986,516.595182799967,518.595047699986,517.5928480000002,518.5918552000076,517.5928480000002,518.5918552000076,518.5918552000076,None,32.99977399990894,522.5898631999735,None,522.5898631999735,None,3,0.330719199962914,522.5898631999735,None,528.5866452000337,None,,,,,,,,,,,,,,,,,,,,,,,,,,,,,,,,,,,,,,,,,,1301_t1,001,4,1,2022_Mar_17_1251,task_complete_blocked_LC_updated,2021.2.3,241.0434284320785,
stimulus_images/ABALLYAR4.jpg,SPACE,0,,,,,,,,,,,,,,,,,0,3,3,1,,,,,,,,,,,,,,,,,,,,,,,,,,,,,,,,,,,,,,,,,,,,,,,,,,,,,,,,,,,,,,,,,,,,,,,,,,,,,,,41.000242199981585,530.5933365999954,532.5939582999563,530.5933365999954,532.5939582999563,531.5893388999393,532.5896349999821,531.5893388999393,532.5896349999821,532.5896349999821,None,47.00261729990598,536.5923863999778,None,536.5923863999778,None,4,5.975888599990867,536.5923863999778,None,542.5929958999623,None,,,,,,,,,,,,,,,,,,,,,,,,,,,,,,,,,,,,,,,,,,1301_t1,001,4,1,2022_Mar_17_1251,task_complete_blocked_LC_updated,2021.2.3,241.0434284320785,
stimulus_images/AARMCHA25.jpg,SPACE,0,,,,,,,,,,,,,,,,,0,4,4,0,,,,,,,,,,,,,,,,,,,,,,,,,,,,,,,,,,,,,,,,,,,,,,,,,,,,,,,,,,,,,,,,,,,,,,,,,,,,,,,55.00440360000357,544.597186399973,546.5971055999398,544.597186399973,546.5971055999398,545.5925486999331,546.5940555999987,545.5925486999331,546.5940555999987,546.5901849999791,None,61.00468020001426,550.5942962999688,None,550.5942962999688,None,4,0.4422360999742523,550.5942962999688,None,556.5957686000038,None,,,,,,,,,,,,,,,,,,,,,,,,,,,,,,,,,,,,,,,,,,1301_t1,001,4,1,2022_Mar_17_1251,task_complete_blocked_LC_updated,2021.2.3,241.0434284320785,
stimulus_images/Aeasteregg14.jpg,SPACE,0,,,,,,,,,,,,,,,,,0,5,5,6,,,,,,,,,,,,,,,,,,,,,,,,,,,,,,,,,,,,,,,,,,,,,,,,,,,,,,,,,,,,,,,,,,,,,,,,,,,,,,,69.0086649999721,558.6025098999962,560.6093535999535,558.6025098999962,560.6093535999535,559.5969756999984,560.6019338000333,559.5969756999984,560.6019338000333,560.6019338000333,None,75.01112519996241,564.6010220999597,None,564.6010220999597,None,2,0.516518099932,564.6010220999597,None,570.6000321999891,None,,,,,,,,,,,,,,,,,,,,,,,,,,,,,,,,,,,,,,,,,,1301_t1,001,4,1,2022_Mar_17_1251,task_complete_blocked_LC_updated,2021.2.3,241.0434284320785,
stimulus_images/Acomputerdriv.jpg,SPACE,0,,,,,,,,,,,,,,,,,0,6,6,5,,,,,,,,,,,,,,,,,,,,,,,,,,,,,,,,,,,,,,,,,,,,,,,,,,,,,,,,,,,,,,,,,,,,,,,,,,,,,,,83.01285990001634,572.6134222999681,574.6151512999786,572.6134222999681,574.6151512999786,573.6050892999629,574.6077456999337,573.6050892999629,574.6077456999337,574.6077456999337,None,89.01596190000419,578.6064491999568,None,578.6064491999568,None,3,1.704492799937725,578.6064491999568,None,584.6088439000305,None,,,,,,,,,,,,,,,,,,,,,,,,,,,,,,,,,,,,,,,,,,1301_t1,001,4,1,2022_Mar_17_1251,task_complete_blocked_LC_updated,2021.2.3,241.0434284320785,
stimulus_images/ABILLTABL.jpg,SPACE,1,,,,,,,,,,,,,,,,,0,7,7,2,,,,,,,,,,,,,,,,,,,,,,,,,,,,,,,,,,,,,,,,,,,,,,,,,,,,,,,,,,,,,,,,,,,,,,,,,,,,,,,98.02192359999754,587.6142899999395,589.6146318999818,587.6142899999395,589.6146318999818,588.6103165999521,589.6146318999818,588.6103165999521,589.6146318999818,589.6113218000391,None,104.02374400000554,593.613567900029,None,593.613567900029,None,1,0.7505921999691054,593.613567900029,None,599.6134709999897,None,,,,,,,,,,,,,,,,,,,,,,,,,,,,,,,,,,,,,,,,,,1301_t1,001,4,1,2022_Mar_17_1251,task_complete_blocked_LC_updated,2021.2.3,241.0434284320785,
stimulus_images/Agiftbag20.jpg,SPACE,1,,,,,,,,,,,,,,,,,0,8,8,7,,,,,,,,,,,,,,,,,,,,,,,,,,,,,,,,,,,,,,,,,,,,,,,,,,,,,,,,,,,,,,,,,,,,,,,,,,,,,,,113.0258306999458,602.6259004999883,604.623564700014,602.6259004999883,604.623564700014,603.62191300001,604.6209401999367,603.62191300001,604.6209401999367,604.6209401999367,None,119.02824070001952,608.6182011000346,None,608.6182011000346,None,4,0.6374640000285581,608.6182011000346,None,614.6187127999729,None,,,,,,,,,,,,,,,,,,,,,,,,,,,,,,,,,,,,,,,,,,1301_t1,001,4,1,2022_Mar_17_1251,task_complete_blocked_LC_updated,2021.2.3,241.0434284320785,
stimulus_images/ACAROSLI2.jpg,SPACE,0,,,,,,,,,,,,,,,,,0,9,9,4,,,,,,,,,,,,,,,,,,,,,,,,,,,,,,,,,,,,,,,,,,,,,,,,,,,,,,,,,,,,,,,,,,,,,,,,,,,,,,,128.03030029998627,617.6236181999557,619.625443900004,617.6236181999557,619.625443900004,618.6223184999544,619.625443900004,618.6223184999544,619.625443900004,619.6168517000042,None,134.03007939993404,623.6200290999841,None,623.6200290999841,None,4,0.36101170000620186,623.6200290999841,None,629.6192399000283,None,,,,,,,,,,,,,,,,,,,,,,,,,,,,,,,,,,,,,,,,,,1301_t1,001,4,1,2022_Mar_17_1251,task_complete_blocked_LC_updated,2021.2.3,241.0434284320785,
stimulus_images/corkscrew02.jpg,SPACE,0,,,,,,,,,,,,,,,,,,,,,0,0,0,2,,,,,,,,,,,,,,,,,,,,,,,,,,,,,,,,,,,,,,,,,,,,,,,,,,,,,,,,,,,,,,,,,,,,,,,,,,,141.04027749993838,630.6328699999722,632.6338334999746,630.6328699999722,632.6338334999746,631.6313955000369,632.6338334999746,631.6313955000369,632.6338334999746,632.6338334999746,None,147.03664930001833,636.6268774999771,None,636.6268774999771,None,4,0.3914618999697268,636.6268774999771,None,642.6286551000085,None,,,,,,,,,,,,,,,,,,,,,,,,,,,,,,,,,,,,,,,,,,1301_t1,001,4,1,2022_Mar_17_1251,task_complete_blocked_LC_updated,2021.2.3,241.0434284320785,
stimulus_images/Abackpack11.jpg,SPACE,1,,,,,,,,,,,,,,,,,,,,,0,1,1,7,,,,,,,,,,,,,,,,,,,,,,,,,,,,,,,,,,,,,,,,,,,,,,,,,,,,,,,,,,,,,,,,,,,,,,,,,,,156.04227179998998,645.6358939999482,647.6398955000332,645.6358939999482,647.6398955000332,646.6298677999293,647.6315942000365,646.6298677999293,647.6315942000365,647.6315942000365,None,162.04215999995358,651.6319315000437,None,651.6319315000437,None,4,0.34829590003937483,651.6319315000437,None,657.6406135000288,None,,,,,,,,,,,,,,,,,,,,,,,,,,,,,,,,,,,,,,,,,,1301_t1,001,4,1,2022_Mar_17_1251,task_complete_blocked_LC_updated,2021.2.3,241.0434284320785,
stimulus_images/A25thdec3.jpg,SPACE,0,,,,,,,,,,,,,,,,,,,,,0,2,2,4,,,,,,,,,,,,,,,,,,,,,,,,,,,,,,,,,,,,,,,,,,,,,,,,,,,,,,,,,,,,,,,,,,,,,,,,,,,170.05497219995596,659.6483195000328,661.6487351999385,659.6483195000328,661.6487351999385,660.6433082999429,661.6457419999642,660.6433082999429,661.6457419999642,661.6457419999642,None,176.0573938000016,665.6474309000187,None,665.6474309000187,None,4,1.0707499000709504,665.6474309000187,None,671.6498294000048,None,,,,,,,,,,,,,,,,,,,,,,,,,,,,,,,,,,,,,,,,,,1301_t1,001,4,1,2022_Mar_17_1251,task_complete_blocked_LC_updated,2021.2.3,241.0434284320785,
stimulus_images/Abasketofbrea.jpg,SPACE,0,,,,,,,,,,,,,,,,,,,,,0,3,3,8,,,,,,,,,,,,,,,,,,,,,,,,,,,,,,,,,,,,,,,,,,,,,,,,,,,,,,,,,,,,,,,,,,,,,,,,,,,185.06314460001886,674.663389399997,676.6699415999465,674.663389399997,676.6699415999465,675.6600751000224,676.6661822999595,675.6600751000224,676.6661822999595,676.6661822999595,None,191.06575519999024,680.6556697000051,None,680.6556697000051,None,4,0.8156132000731304,680.6556697000051,None,686.664747999981,None,,,,,,,,,,,,,,,,,,,,,,,,,,,,,,,,,,,,,,,,,,1301_t1,001,4,1,2022_Mar_17_1251,task_complete_blocked_LC_updated,2021.2.3,241.0434284320785,
stimulus_images/Aboots56.jpg,SPACE,0,,,,,,,,,,,,,,,,,,,,,0,4,4,9,,,,,,,,,,,,,,,,,,,,,,,,,,,,,,,,,,,,,,,,,,,,,,,,,,,,,,,,,,,,,,,,,,,,,,,,,,,198.0761082000099,687.6691648999695,689.6703075999394,687.6691648999695,689.6703075999394,688.664518799982,689.6672857999802,688.664518799982,689.6672857999802,689.6635473000351,None,204.07591919996776,693.6657108999789,None,693.6657108999789,None,4,0.6165653999196365,693.6657108999789,None,699.6707444000058,None,,,,,,,,,,,,,,,,,,,,,,,,,,,,,,,,,,,,,,,,,,1301_t1,001,4,1,2022_Mar_17_1251,task_complete_blocked_LC_updated,2021.2.3,241.0434284320785,
stimulus_images/wetsuit1.jpg,SPACE,0,,,,,,,,,,,,,,,,,,,,,0,5,5,3,,,,,,,,,,,,,,,,,,,,,,,,,,,,,,,,,,,,,,,,,,,,,,,,,,,,,,,,,,,,,,,,,,,,,,,,,,,212.0842505999608,701.6775713999523,703.6793202999979,701.6775713999523,703.6793202999979,702.6739399000071,703.6761871000053,702.6739399000071,703.6761871000053,703.6722576000029,None,218.08428019995335,707.6739396000048,None,707.6739396000048,None,2,0.5969421000918373,707.6739396000048,None,713.6753002000041,None,,,,,,,,,,,,,,,,,,,,,,,,,,,,,,,,,,,,,,,,,,1301_t1,001,4,1,2022_Mar_17_1251,task_complete_blocked_LC_updated,2021.2.3,241.0434284320785,
stimulus_images/AALTIRE2.jpg,SPACE,0,,,,,,,,,,,,,,,,,,,,,0,6,6,5,,,,,,,,,,,,,,,,,,,,,,,,,,,,,,,,,,,,,,,,,,,,,,,,,,,,,,,,,,,,,,,,,,,,,,,,,,,225.08860979997553,714.6827526999405,716.6875599999912,714.6827526999405,716.6875599999912,715.6769450999564,716.6770432000048,715.6769450999564,716.6770432000048,716.6770432000048,None,231.0886941999197,720.684917800012,None,720.684917800012,None,1,0.7543239999795333,720.684917800012,None,726.6797917999793,None,,,,,,,,,,,,,,,,,,,,,,,,,,,,,,,,,,,,,,,,,,1301_t1,001,4,1,2022_Mar_17_1251,task_complete_blocked_LC_updated,2021.2.3,241.0434284320785,
stimulus_images/Aroadsignin15.jpg,SPACE,1,,,,,,,,,,,,,,,,,,,,,0,7,7,0,,,,,,,,,,,,,,,,,,,,,,,,,,,,,,,,,,,,,,,,,,,,,,,,,,,,,,,,,,,,,,,,,,,,,,,,,,,239.09280260000378,728.6858155999798,730.685527900001,728.6858155999798,730.685527900001,729.6789855000097,730.6815024999669,729.6789855000097,730.6815024999669,730.6815024999669,None,245.0929102000082,734.6826989999972,None,734.6826989999972,None,1,0.3794175999937579,734.6826989999972,None,740.6844129000092,None,,,,,,,,,,,,,,,,,,,,,,,,,,,,,,,,,,,,,,,,,,1301_t1,001,4,1,2022_Mar_17_1251,task_complete_blocked_LC_updated,2021.2.3,241.0434284320785,
stimulus_images/Atelescope2.jpg,SPACE,1,,,,,,,,,,,,,,,,,,,,,0,8,8,1,,,,,,,,,,,,,,,,,,,,,,,,,,,,,,,,,,,,,,,,,,,,,,,,,,,,,,,,,,,,,,,,,,,,,,,,,,,252.09710579994135,741.690007600002,743.6911611999385,741.690007600002,743.6911611999385,742.6862153999973,743.6879954999313,742.6862153999973,743.6879954999313,743.6839873000281,None,258.0973788999254,747.6868332999293,None,747.6868332999293,None,4,0.42834189999848604,747.6868332999293,None,753.6880258999299,None,,,,,,,,,,,,,,,,,,,,,,,,,,,,,,,,,,,,,,,,,,1301_t1,001,4,1,2022_Mar_17_1251,task_complete_blocked_LC_updated,2021.2.3,241.0434284320785,
stimulus_images/Aantiquerota7.jpg,SPACE,0,,,,,,,,,,,,,,,,,,,,,0,9,9,6,,,,,,,,,,,,,,,,,,,,,,,,,,,,,,,,,,,,,,,,,,,,,,,,,,,,,,,,,,,,,,,,,,,,,,,,,,,267.1008119999897,756.7007742000278,758.699628100032,756.7007742000278,758.699628100032,757.6986023000209,758.699628100032,757.6986023000209,758.699628100032,758.6963261000346,None,273.10384250001516,762.69422569999,None,762.69422569999,None,4,0.990419999929145,762.69422569999,None,768.696965900017,None,,,,,,,,,,,,,,,,,,,,,,,,,,,,,,,,,,,,,,,,,,1301_t1,001,4,1,2022_Mar_17_1251,task_complete_blocked_LC_updated,2021.2.3,241.0434284320785,
,,,X,1,,,,,,,,,,,,,,,,,,,,,,,0,0,0,0,,,,,,,,,,,,,,,,,,,,,,,,,,,,,,,,,,,,,,,,,,,,,,,,,,,,,,,,,,,,,,,,,,,,,,,,,,,,,,,,,,,,,,,,,,,,,769.6987626999617,None,772.7042820999632,773.6584108000388,1,1,0.7480498999357224,772.7042820999632,773.6584108000388,773.6560969999991,None,,,,,,,,,,,,,,,,,,,,,,,,,,,,,,,1301_t1,001,4,1,2022_Mar_17_1251,task_complete_blocked_LC_updated,2021.2.3,241.0434284320785,
,,,O,2,,,,,,,,,,,,,,,,,,,,,,,0,1,1,1,,,,,,,,,,,,,,,,,,,,,,,,,,,,,,,,,,,,,,,,,,,,,,,,,,,,,,,,,,,,,,,,,,,,,,,,,,,,,,,,,,,,,,,,,,,,,,,773.7038302000146,774.6521836000029,2,1,0.3702204000437632,773.7038302000146,774.6521836000029,774.6521836000029,None,,,,,,,,,,,,,,,,,,,,,,,,,,,,,,,1301_t1,001,4,1,2022_Mar_17_1251,task_complete_blocked_LC_updated,2021.2.3,241.0434284320785,
,,,O,2,,,,,,,,,,,,,,,,,,,,,,,1,0,2,1,,,,,,,,,,,,,,,,,,,,,,,,,,,,,,,,,,,,,,,,,,,,,,,,,,,,,,,,,,,,,,,,,,,,,,,,,,,,,,,,,,,,,,,,,,,,,,,774.7020446000388,775.6526469000382,2,1,0.35513859998900443,774.7020446000388,775.6526469000382,775.6494708999526,None,,,,,,,,,,,,,,,,,,,,,,,,,,,,,,,1301_t1,001,4,1,2022_Mar_17_1251,task_complete_blocked_LC_updated,2021.2.3,241.0434284320785,
,,,X,1,,,,,,,,,,,,,,,,,,,,,,,1,1,3,0,,,,,,,,,,,,,,,,,,,,,,,,,,,,,,,,,,,,,,,,,,,,,,,,,,,,,,,,,,,,,,,,,,,,,,,,,,,,,,,,,,,,,,,,,,,,,,,775.7029511999572,776.6554417000152,1,1,0.32213089999277145,775.7029511999572,776.6554417000152,776.6554417000152,None,,,,,,,,,,,,,,,,,,,,,,,,,,,,,,,1301_t1,001,4,1,2022_Mar_17_1251,task_complete_blocked_LC_updated,2021.2.3,241.0434284320785,
,,,X,1,,,,,,,,,,,,,,,,,,,,,,,2,0,4,0,,,,,,,,,,,,,,,,,,,,,,,,,,,,,,,,,,,,,,,,,,,,,,,,,,,,,,,,,,,,,,,,,,,,,,,,,,,,,,,,,,,,,,,,,,,,,,,776.7020661999704,777.6535618000198,1,1,0.33295940002426505,776.7020661999704,777.6535618000198,777.6505509000272,None,,,,,,,,,,,,,,,,,,,,,,,,,,,,,,,1301_t1,001,4,1,2022_Mar_17_1251,task_complete_blocked_LC_updated,2021.2.3,241.0434284320785,
,,,O,2,,,,,,,,,,,,,,,,,,,,,,,2,1,5,1,,,,,,,,,,,,,,,,,,,,,,,,,,,,,,,,,,,,,,,,,,,,,,,,,,,,,,,,,,,,,,,,,,,,,,,,,,,,,,,,,,,,,,,,,,,,,,,777.7031728000147,778.6570072999457,2,1,0.26603430008981377,777.7031728000147,778.6570072999457,778.6537196999416,None,,,,,,,,,,,,,,,,,,,,,,,,,,,,,,,1301_t1,001,4,1,2022_Mar_17_1251,task_complete_blocked_LC_updated,2021.2.3,241.0434284320785,
,,,X,1,,,,,,,,,,,,,,,,,,,,,,,3,0,6,0,,,,,,,,,,,,,,,,,,,,,,,,,,,,,,,,,,,,,,,,,,,,,,,,,,,,,,,,,,,,,,,,,,,,,,,,,,,,,,,,,,,,,,,,,,,,,,,778.7035421000328,779.657062000013,1,1,0.4204054999863729,778.7035421000328,779.657062000013,779.6481825000374,None,,,,,,,,,,,,,,,,,,,,,,,,,,,,,,,1301_t1,001,4,1,2022_Mar_17_1251,task_complete_blocked_LC_updated,2021.2.3,241.0434284320785,
,,,O,2,,,,,,,,,,,,,,,,,,,,,,,3,1,7,1,,,,,,,,,,,,,,,,,,,,,,,,,,,,,,,,,,,,,,,,,,,,,,,,,,,,,,,,,,,,,,,,,,,,,,,,,,,,,,,,,,,,,,,,,,,,,,,779.7041211000178,780.6562098000431,2,1,0.33715340006165206,779.7041211000178,780.6562098000431,780.647371100029,779.7041211000178,,,,,,,,,,,,,,,,,,,,,,,,,,,,,,,1301_t1,001,4,1,2022_Mar_17_1251,task_complete_blocked_LC_updated,2021.2.3,241.0434284320785,
,,,O,2,,,,,,,,,,,,,,,,,,,,,,,4,0,8,1,,,,,,,,,,,,,,,,,,,,,,,,,,,,,,,,,,,,,,,,,,,,,,,,,,,,,,,,,,,,,,,,,,,,,,,,,,,,,,,,,,,,,,,,,,,,,,,780.6995838000439,781.6494052000344,2,1,0.33947680005803704,780.6995838000439,781.6494052000344,781.6469343999634,780.6995838000439,,,,,,,,,,,,,,,,,,,,,,,,,,,,,,,1301_t1,001,4,1,2022_Mar_17_1251,task_complete_blocked_LC_updated,2021.2.3,241.0434284320785,
,,,X,1,,,,,,,,,,,,,,,,,,,,,,,4,1,9,0,,,,,,,,,,,,,,,,,,,,,,,,,,,,,,,,,,,,,,,,,,,,,,,,,,,,,,,,,,,,,,,,,,,,,,,,,,,,,,,,,,,,,,,,,,,,,,,781.7020499999635,782.6507854999509,1,1,0.3668032999848947,781.7020499999635,782.6507854999509,782.6507854999509,781.7020499999635,,,,,,,,,,,,,,,,,,,,,,,,,,,,,,,1301_t1,001,4,1,2022_Mar_17_1251,task_complete_blocked_LC_updated,2021.2.3,241.0434284320785,
,,,O,2,,,,,,,,,,,,,,,,,,,,,,,5,0,10,1,,,,,,,,,,,,,,,,,,,,,,,,,,,,,,,,,,,,,,,,,,,,,,,,,,,,,,,,,,,,,,,,,,,,,,,,,,,,,,,,,,,,,,,,,,,,,,,782.7031192999566,783.6566391999368,2,1,0.4547520999331027,782.7031192999566,783.6566391999368,783.6538596999599,None,,,,,,,,,,,,,,,,,,,,,,,,,,,,,,,1301_t1,001,4,1,2022_Mar_17_1251,task_complete_blocked_LC_updated,2021.2.3,241.0434284320785,
,,,X,1,,,,,,,,,,,,,,,,,,,,,,,5,1,11,0,,,,,,,,,,,,,,,,,,,,,,,,,,,,,,,,,,,,,,,,,,,,,,,,,,,,,,,,,,,,,,,,,,,,,,,,,,,,,,,,,,,,,,,,,,,,,,,783.7036186000332,784.6526346999453,1,1,0.28321070002857596,783.7036186000332,784.6526346999453,784.6501841000281,None,,,,,,,,,,,,,,,,,,,,,,,,,,,,,,,1301_t1,001,4,1,2022_Mar_17_1251,task_complete_blocked_LC_updated,2021.2.3,241.0434284320785,
,,,O,2,,,,,,,,,,,,,,,,,,,,,,,6,0,12,1,,,,,,,,,,,,,,,,,,,,,,,,,,,,,,,,,,,,,,,,,,,,,,,,,,,,,,,,,,,,,,,,,,,,,,,,,,,,,,,,,,,,,,,,,,,,,,,784.7044818999711,785.6583309000125,2,1,0.41150029993150383,784.7044818999711,785.6583309000125,785.6492584999651,None,,,,,,,,,,,,,,,,,,,,,,,,,,,,,,,1301_t1,001,4,1,2022_Mar_17_1251,task_complete_blocked_LC_updated,2021.2.3,241.0434284320785,
,,,X,1,,,,,,,,,,,,,,,,,,,,,,,6,1,13,0,,,,,,,,,,,,,,,,,,,,,,,,,,,,,,,,,,,,,,,,,,,,,,,,,,,,,,,,,,,,,,,,,,,,,,,,,,,,,,,,,,,,,,,,,,,,,,,785.7030667000217,786.6528790999437,1,1,0.3140923000173643,785.7030667000217,786.6528790999437,786.650011699996,None,,,,,,,,,,,,,,,,,,,,,,,,,,,,,,,1301_t1,001,4,1,2022_Mar_17_1251,task_complete_blocked_LC_updated,2021.2.3,241.0434284320785,
,,,O,2,,,,,,,,,,,,,,,,,,,,,,,7,0,14,1,,,,,,,,,,,,,,,,,,,,,,,,,,,,,,,,,,,,,,,,,,,,,,,,,,,,,,,,,,,,,,,,,,,,,,,,,,,,,,,,,,,,,,,,,,,,,,,786.7082405999536,787.6639754000353,2,1,0.33911460009403527,786.7082405999536,787.6639754000353,787.6542746999767,None,,,,,,,,,,,,,,,,,,,,,,,,,,,,,,,1301_t1,001,4,1,2022_Mar_17_1251,task_complete_blocked_LC_updated,2021.2.3,241.0434284320785,
,,,X,1,,,,,,,,,,,,,,,,,,,,,,,7,1,15,0,,,,,,,,,,,,,,,,,,,,,,,,,,,,,,,,,,,,,,,,,,,,,,,,,,,,,,,,,,,,,,,,,,,,,,,,,,,,,,,,,,,,,,,,,,,,,,,787.70209539996,788.6542292999802,1,1,0.3270431999117136,787.70209539996,788.6542292999802,788.6510781999677,None,,,,,,,,,,,,,,,,,,,,,,,,,,,,,,,1301_t1,001,4,1,2022_Mar_17_1251,task_complete_blocked_LC_updated,2021.2.3,241.0434284320785,
,,,X,1,,,,,,,,,,,,,,,,,,,,,,,8,0,16,0,,,,,,,,,,,,,,,,,,,,,,,,,,,,,,,,,,,,,,,,,,,,,,,,,,,,,,,,,,,,,,,,,,,,,,,,,,,,,,,,,,,,,,,,,,,,,,,788.7061860000249,789.6587978999596,1,1,0.3267222000285983,788.7061860000249,789.6587978999596,789.6486827000044,None,,,,,,,,,,,,,,,,,,,,,,,,,,,,,,,1301_t1,001,4,1,2022_Mar_17_1251,task_complete_blocked_LC_updated,2021.2.3,241.0434284320785,
,,,O,2,,,,,,,,,,,,,,,,,,,,,,,8,1,17,1,,,,,,,,,,,,,,,,,,,,,,,,,,,,,,,,,,,,,,,,,,,,,,,,,,,,,,,,,,,,,,,,,,,,,,,,,,,,,,,,,,,,,,,,,,,,,,,789.7033490999602,790.653317600023,2,1,0.38505049992818385,789.7033490999602,790.653317600023,790.6504684999818,None,,,,,,,,,,,,,,,,,,,,,,,,,,,,,,,1301_t1,001,4,1,2022_Mar_17_1251,task_complete_blocked_LC_updated,2021.2.3,241.0434284320785,
,,,X,1,,,,,,,,,,,,,,,,,,,,,,,9,0,18,0,,,,,,,,,,,,,,,,,,,,,,,,,,,,,,,,,,,,,,,,,,,,,,,,,,,,,,,,,,,,,,,,,,,,,,,,,,,,,,,,,,,,,,,,,,,,,,,790.7026079000207,791.655158599955,1,1,0.4192619000095874,790.7026079000207,791.655158599955,791.6515217999695,None,,,,,,,,,,,,,,,,,,,,,,,,,,,,,,,1301_t1,001,4,1,2022_Mar_17_1251,task_complete_blocked_LC_updated,2021.2.3,241.0434284320785,
,,,O,2,,,,,,,,,,,,,,,,,,,,,,,9,1,19,1,,,,,,,,,,,,,,,,,,,,,,,,,,,,,,,,,,,,,,,,,,,,,,,,,,,,,,,,,,,,,,,,,,,,,,,,,,,,,,,,,,,,,,,,,,,,,,,791.7030225000344,792.6532734000357,2,1,0.279295300017111,791.7030225000344,792.6532734000357,792.6496855999576,None,,,,,,,,,,,,,,,,,,,,,,,,,,,,,,,1301_t1,001,4,1,2022_Mar_17_1251,task_complete_blocked_LC_updated,2021.2.3,241.0434284320785,
,,,X,1,,,,,,,,,,,,,,,,,,,,,,,10,0,20,0,,,,,,,,,,,,,,,,,,,,,,,,,,,,,,,,,,,,,,,,,,,,,,,,,,,,,,,,,,,,,,,,,,,,,,,,,,,,,,,,,,,,,,,,,,,,,,,792.7024292999413,793.6563443000196,1,1,0.38604080001823604,792.7024292999413,793.6563443000196,793.6526312000351,None,,,,,,,,,,,,,,,,,,,,,,,,,,,,,,,1301_t1,001,4,1,2022_Mar_17_1251,task_complete_blocked_LC_updated,2021.2.3,241.0434284320785,
,,,O,2,,,,,,,,,,,,,,,,,,,,,,,10,1,21,1,,,,,,,,,,,,,,,,,,,,,,,,,,,,,,,,,,,,,,,,,,,,,,,,,,,,,,,,,,,,,,,,,,,,,,,,,,,,,,,,,,,,,,,,,,,,,,,793.7028104999335,794.6517892000265,2,1,0.3245578999631107,793.7028104999335,794.6517892000265,794.6489438000135,None,,,,,,,,,,,,,,,,,,,,,,,,,,,,,,,1301_t1,001,4,1,2022_Mar_17_1251,task_complete_blocked_LC_updated,2021.2.3,241.0434284320785,
,,,X,1,,,,,,,,,,,,,,,,,,,,,,,11,0,22,0,,,,,,,,,,,,,,,,,,,,,,,,,,,,,,,,,,,,,,,,,,,,,,,,,,,,,,,,,,,,,,,,,,,,,,,,,,,,,,,,,,,,,,,,,,,,,,,794.7010989999399,795.6517216999782,1,1,0.6280306000262499,794.7010989999399,795.6517216999782,795.6490170999896,794.7010989999399,,,,,,,,,,,,,,,,,,,,,,,,,,,,,,,1301_t1,001,4,1,2022_Mar_17_1251,task_complete_blocked_LC_updated,2021.2.3,241.0434284320785,
,,,O,2,,,,,,,,,,,,,,,,,,,,,,,11,1,23,1,,,,,,,,,,,,,,,,,,,,,,,,,,,,,,,,,,,,,,,,,,,,,,,,,,,,,,,,,,,,,,,,,,,,,,,,,,,,,,,,,,,,,,,,,,,,,,,795.7028812000062,796.6533192000352,2,1,0.3573924000374973,795.7028812000062,796.6533192000352,796.6499785999767,None,,,,,,,,,,,,,,,,,,,,,,,,,,,,,,,1301_t1,001,4,1,2022_Mar_17_1251,task_complete_blocked_LC_updated,2021.2.3,241.0434284320785,
,,,X,1,,,,,,,,,,,,,,,,,,,,,,,12,0,24,0,,,,,,,,,,,,,,,,,,,,,,,,,,,,,,,,,,,,,,,,,,,,,,,,,,,,,,,,,,,,,,,,,,,,,,,,,,,,,,,,,,,,,,,,,,,,,,,796.716553300037,797.6733013000339,1,1,0.4015404999954626,796.716553300037,797.6733013000339,797.658888099948,None,,,,,,,,,,,,,,,,,,,,,,,,,,,,,,,1301_t1,001,4,1,2022_Mar_17_1251,task_complete_blocked_LC_updated,2021.2.3,241.0434284320785,
,,,O,2,,,,,,,,,,,,,,,,,,,,,,,12,1,25,1,,,,,,,,,,,,,,,,,,,,,,,,,,,,,,,,,,,,,,,,,,,,,,,,,,,,,,,,,,,,,,,,,,,,,,,,,,,,,,,,,,,,,,,,,,,,,,,797.7059243000112,798.661031799973,2,1,0.26142260001506656,797.7059243000112,798.661031799973,798.6533845999511,None,,,,,,,,,,,,,,,,,,,,,,,,,,,,,,,1301_t1,001,4,1,2022_Mar_17_1251,task_complete_blocked_LC_updated,2021.2.3,241.0434284320785,
,,,X,1,,,,,,,,,,,,,,,,,,,,,,,13,0,26,0,,,,,,,,,,,,,,,,,,,,,,,,,,,,,,,,,,,,,,,,,,,,,,,,,,,,,,,,,,,,,,,,,,,,,,,,,,,,,,,,,,,,,,,,,,,,,,,798.7040063999593,799.6611974999541,1,1,0.3161284999223426,798.7040063999593,799.6611974999541,799.6611974999541,None,,,,,,,,,,,,,,,,,,,,,,,,,,,,,,,1301_t1,001,4,1,2022_Mar_17_1251,task_complete_blocked_LC_updated,2021.2.3,241.0434284320785,
,,,O,2,,,,,,,,,,,,,,,,,,,,,,,13,1,27,1,,,,,,,,,,,,,,,,,,,,,,,,,,,,,,,,,,,,,,,,,,,,,,,,,,,,,,,,,,,,,,,,,,,,,,,,,,,,,,,,,,,,,,,,,,,,,,,799.7041919999756,800.6543918999378,2,1,0.25682240002788603,799.7041919999756,800.6543918999378,800.6512023999821,None,,,,,,,,,,,,,,,,,,,,,,,,,,,,,,,1301_t1,001,4,1,2022_Mar_17_1251,task_complete_blocked_LC_updated,2021.2.3,241.0434284320785,
,,,X,1,,,,,,,,,,,,,,,,,,,,,,,14,0,28,0,,,,,,,,,,,,,,,,,,,,,,,,,,,,,,,,,,,,,,,,,,,,,,,,,,,,,,,,,,,,,,,,,,,,,,,,,,,,,,,,,,,,,,,,,,,,,,,800.7039415999316,801.6535205999389,1,1,0.4115904999198392,800.7039415999316,801.6535205999389,801.6504133000271,None,,,,,,,,,,,,,,,,,,,,,,,,,,,,,,,1301_t1,001,4,1,2022_Mar_17_1251,task_complete_blocked_LC_updated,2021.2.3,241.0434284320785,
,,,O,2,,,,,,,,,,,,,,,,,,,,,,,14,1,29,1,,,,,,,,,,,,,,,,,,,,,,,,,,,,,,,,,,,,,,,,,,,,,,,,,,,,,,,,,,,,,,,,,,,,,,,,,,,,,,,,,,,,,,,,,,,,,,,801.7029764000326,802.6546666999348,2,1,0.21759959997143596,801.7029764000326,802.6546666999348,802.6484363999916,None,,,,,,,,,,,,,,,,,,,,,,,,,,,,,,,1301_t1,001,4,1,2022_Mar_17_1251,task_complete_blocked_LC_updated,2021.2.3,241.0434284320785,
,,,X,1,,,,,,,,,,,,,,,,,,,,,,,15,0,30,0,,,,,,,,,,,,,,,,,,,,,,,,,,,,,,,,,,,,,,,,,,,,,,,,,,,,,,,,,,,,,,,,,,,,,,,,,,,,,,,,,,,,,,,,,,,,,,,802.7062743999995,803.6564573999494,1,1,0.3755760000785813,802.7062743999995,803.6564573999494,803.6473151999526,None,,,,,,,,,,,,,,,,,,,,,,,,,,,,,,,1301_t1,001,4,1,2022_Mar_17_1251,task_complete_blocked_LC_updated,2021.2.3,241.0434284320785,
,,,O,2,,,,,,,,,,,,,,,,,,,,,,,15,1,31,1,,,,,,,,,,,,,,,,,,,,,,,,,,,,,,,,,,,,,,,,,,,,,,,,,,,,,,,,,,,,,,,,,,,,,,,,,,,,,,,,,,,,,,,,,,,,,,,803.699219299946,804.6479786999989,2,1,0.23207419994287193,803.699219299946,804.6479786999989,804.6479786999989,803.699219299946,,,,,,,,,,,,,,,,,,,,,,,,,,,,,,,1301_t1,001,4,1,2022_Mar_17_1251,task_complete_blocked_LC_updated,2021.2.3,241.0434284320785,
,,,O,2,,,,,,,,,,,,,,,,,,,,,,,16,0,32,1,,,,,,,,,,,,,,,,,,,,,,,,,,,,,,,,,,,,,,,,,,,,,,,,,,,,,,,,,,,,,,,,,,,,,,,,,,,,,,,,,,,,,,,,,,,,,,,804.7109570000321,805.6681923000142,2,1,0.4178865000139922,804.7109570000321,805.6681923000142,805.6630745000439,None,,,,,,,,,,,,,,,,,,,,,,,,,,,,,,,1301_t1,001,4,1,2022_Mar_17_1251,task_complete_blocked_LC_updated,2021.2.3,241.0434284320785,
,,,X,1,,,,,,,,,,,,,,,,,,,,,,,16,1,33,0,,,,,,,,,,,,,,,,,,,,,,,,,,,,,,,,,,,,,,,,,,,,,,,,,,,,,,,,,,,,,,,,,,,,,,,,,,,,,,,,,,,,,,,,,,,,,,,805.7032769999932,806.6606540000066,1,1,0.3355339999543503,805.7032769999932,806.6606540000066,806.6529372000368,None,,,,,,,,,,,,,,,,,,,,,,,,,,,,,,,1301_t1,001,4,1,2022_Mar_17_1251,task_complete_blocked_LC_updated,2021.2.3,241.0434284320785,
,,,X,1,,,,,,,,,,,,,,,,,,,,,,,17,0,34,0,,,,,,,,,,,,,,,,,,,,,,,,,,,,,,,,,,,,,,,,,,,,,,,,,,,,,,,,,,,,,,,,,,,,,,,,,,,,,,,,,,,,,,,,,,,,,,,806.7017561999382,807.6523342999863,1,1,0.32784319994971156,806.7017561999382,807.6523342999863,807.650009999983,None,,,,,,,,,,,,,,,,,,,,,,,,,,,,,,,1301_t1,001,4,1,2022_Mar_17_1251,task_complete_blocked_LC_updated,2021.2.3,241.0434284320785,
,,,O,2,,,,,,,,,,,,,,,,,,,,,,,17,1,35,1,,,,,,,,,,,,,,,,,,,,,,,,,,,,,,,,,,,,,,,,,,,,,,,,,,,,,,,,,,,,,,,,,,,,,,,,,,,,,,,,,,,,,,,,,,,,,,,807.7032675000373,808.6523191999877,2,1,0.24834090005606413,807.7032675000373,808.6523191999877,808.6493720000144,None,,,,,,,,,,,,,,,,,,,,,,,,,,,,,,,1301_t1,001,4,1,2022_Mar_17_1251,task_complete_blocked_LC_updated,2021.2.3,241.0434284320785,
,,,X,1,,,,,,,,,,,,,,,,,,,,,,,18,0,36,0,,,,,,,,,,,,,,,,,,,,,,,,,,,,,,,,,,,,,,,,,,,,,,,,,,,,,,,,,,,,,,,,,,,,,,,,,,,,,,,,,,,,,,,,,,,,,,,808.7027328000404,809.6525083000306,1,1,0.33937459997832775,808.7027328000404,809.6525083000306,809.6492303999839,None,,,,,,,,,,,,,,,,,,,,,,,,,,,,,,,1301_t1,001,4,1,2022_Mar_17_1251,task_complete_blocked_LC_updated,2021.2.3,241.0434284320785,
,,,O,2,,,,,,,,,,,,,,,,,,,,,,,18,1,37,1,,,,,,,,,,,,,,,,,,,,,,,,,,,,,,,,,,,,,,,,,,,,,,,,,,,,,,,,,,,,,,,,,,,,,,,,,,,,,,,,,,,,,,,,,,,,,,,809.7038695999654,810.6545703000156,2,1,0.2533550999360159,809.7038695999654,810.6545703000156,810.6512516000075,None,,,,,,,,,,,,,,,,,,,,,,,,,,,,,,,1301_t1,001,4,1,2022_Mar_17_1251,task_complete_blocked_LC_updated,2021.2.3,241.0434284320785,
,,,X,1,,,,,,,,,,,,,,,,,,,,,,,19,0,38,0,,,,,,,,,,,,,,,,,,,,,,,,,,,,,,,,,,,,,,,,,,,,,,,,,,,,,,,,,,,,,,,,,,,,,,,,,,,,,,,,,,,,,,,,,,,,,,,810.7026249000337,811.6521392000141,1,1,0.4421750999754295,810.7026249000337,811.6521392000141,811.6487184999278,None,,,,,,,,,,,,,,,,,,,,,,,,,,,,,,,1301_t1,001,4,1,2022_Mar_17_1251,task_complete_blocked_LC_updated,2021.2.3,241.0434284320785,
,,,O,2,,,,,,,,,,,,,,,,,,,,,,,19,1,39,1,,,,,,,,,,,,,,,,,,,,,,,,,,,,,,,,,,,,,,,,,,,,,,,,,,,,,,,,,,,,,,,,,,,,,,,,,,,,,,,,,,,,,,,,,,,,,,,811.7010665000416,812.6545864000218,2,1,0.3040107999695465,811.7010665000416,812.6545864000218,812.651413399959,811.7010665000416,,,,,,,,,,,,,,,,,,,,,,,,,,,,,,,1301_t1,001,4,1,2022_Mar_17_1251,task_complete_blocked_LC_updated,2021.2.3,241.0434284320785,
,,,X,1,,,,,,,,,,,,,,,,,,,,,,,20,0,40,0,,,,,,,,,,,,,,,,,,,,,,,,,,,,,,,,,,,,,,,,,,,,,,,,,,,,,,,,,,,,,,,,,,,,,,,,,,,,,,,,,,,,,,,,,,,,,,,812.706823799992,813.6615120000206,1,1,0.38222959998529404,812.706823799992,813.6615120000206,813.6571548000211,None,,,,,,,,,,,,,,,,,,,,,,,,,,,,,,,1301_t1,001,4,1,2022_Mar_17_1251,task_complete_blocked_LC_updated,2021.2.3,241.0434284320785,
,,,O,2,,,,,,,,,,,,,,,,,,,,,,,20,1,41,1,,,,,,,,,,,,,,,,,,,,,,,,,,,,,,,,,,,,,,,,,,,,,,,,,,,,,,,,,,,,,,,,,,,,,,,,,,,,,,,,,,,,,,,,,,,,,,,813.7028092000401,814.656836799928,2,1,0.4411381999962032,813.7028092000401,814.656836799928,814.6526984999655,None,,,,,,,,,,,,,,,,,,,,,,,,,,,,,,,1301_t1,001,4,1,2022_Mar_17_1251,task_complete_blocked_LC_updated,2021.2.3,241.0434284320785,
,,,O,2,,,,,,,,,,,,,,,,,,,,,,,21,0,42,1,,,,,,,,,,,,,,,,,,,,,,,,,,,,,,,,,,,,,,,,,,,,,,,,,,,,,,,,,,,,,,,,,,,,,,,,,,,,,,,,,,,,,,,,,,,,,,,814.7049343000399,815.6548707999755,2,1,0.37039609998464584,814.7049343000399,815.6548707999755,815.6522105999757,None,,,,,,,,,,,,,,,,,,,,,,,,,,,,,,,1301_t1,001,4,1,2022_Mar_17_1251,task_complete_blocked_LC_updated,2021.2.3,241.0434284320785,
,,,X,1,,,,,,,,,,,,,,,,,,,,,,,21,1,43,0,,,,,,,,,,,,,,,,,,,,,,,,,,,,,,,,,,,,,,,,,,,,,,,,,,,,,,,,,,,,,,,,,,,,,,,,,,,,,,,,,,,,,,,,,,,,,,,815.7025411999784,816.6521559000248,1,1,0.25950059993192554,815.7025411999784,816.6521559000248,816.6493535999907,None,,,,,,,,,,,,,,,,,,,,,,,,,,,,,,,1301_t1,001,4,1,2022_Mar_17_1251,task_complete_blocked_LC_updated,2021.2.3,241.0434284320785,
,,,X,1,,,,,,,,,,,,,,,,,,,,,,,22,0,44,0,,,,,,,,,,,,,,,,,,,,,,,,,,,,,,,,,,,,,,,,,,,,,,,,,,,,,,,,,,,,,,,,,,,,,,,,,,,,,,,,,,,,,,,,,,,,,,,816.7022703000112,817.6537496999372,1,1,0.32185120007488877,816.7022703000112,817.6537496999372,817.6504140000325,None,,,,,,,,,,,,,,,,,,,,,,,,,,,,,,,1301_t1,001,4,1,2022_Mar_17_1251,task_complete_blocked_LC_updated,2021.2.3,241.0434284320785,
,,,O,2,,,,,,,,,,,,,,,,,,,,,,,22,1,45,1,,,,,,,,,,,,,,,,,,,,,,,,,,,,,,,,,,,,,,,,,,,,,,,,,,,,,,,,,,,,,,,,,,,,,,,,,,,,,,,,,,,,,,,,,,,,,,,817.7041599999648,818.6563145000255,2,1,0.30309009994380176,817.7041599999648,818.6563145000255,818.6515229999786,None,,,,,,,,,,,,,,,,,,,,,,,,,,,,,,,1301_t1,001,4,1,2022_Mar_17_1251,task_complete_blocked_LC_updated,2021.2.3,241.0434284320785,
,,,X,1,,,,,,,,,,,,,,,,,,,,,,,23,0,46,0,,,,,,,,,,,,,,,,,,,,,,,,,,,,,,,,,,,,,,,,,,,,,,,,,,,,,,,,,,,,,,,,,,,,,,,,,,,,,,,,,,,,,,,,,,,,,,,818.7052819000091,819.6540407999419,1,1,0.3807905000867322,818.7052819000091,819.6540407999419,819.6504147000378,None,,,,,,,,,,,,,,,,,,,,,,,,,,,,,,,1301_t1,001,4,1,2022_Mar_17_1251,task_complete_blocked_LC_updated,2021.2.3,241.0434284320785,
,,,O,2,,,,,,,,,,,,,,,,,,,,,,,23,1,47,1,,,,,,,,,,,,,,,,,,,,,,,,,,,,,,,,,,,,,,,,,,,,,,,,,,,,,,,,,,,,,,,,,,,,,,,,,,,,,,,,,,,,,,,,,,,,,,,819.7033772999421,820.6522645000368,2,1,0.22973979997914284,819.7033772999421,820.6522645000368,820.6484333999688,None,,,,,,,,,,,,,,,,,,,,,,,,,,,,,,,1301_t1,001,4,1,2022_Mar_17_1251,task_complete_blocked_LC_updated,2021.2.3,241.0434284320785,
,,,X,1,,,,,,,,,,,,,,,,,,,,,,,24,0,48,0,,,,,,,,,,,,,,,,,,,,,,,,,,,,,,,,,,,,,,,,,,,,,,,,,,,,,,,,,,,,,,,,,,,,,,,,,,,,,,,,,,,,,,,,,,,,,,,820.7015157999704,821.6604487999575,1,1,0.3068291998934001,820.7015157999704,821.6604487999575,821.6560336999828,820.7015157999704,,,,,,,,,,,,,,,,,,,,,,,,,,,,,,,1301_t1,001,4,1,2022_Mar_17_1251,task_complete_blocked_LC_updated,2021.2.3,241.0434284320785,
,,,O,2,,,,,,,,,,,,,,,,,,,,,,,24,1,49,1,,,,,,,,,,,,,,,,,,,,,,,,,,,,,,,,,,,,,,,,,,,,,,,,,,,,,,,,,,,,,,,,,,,,,,,,,,,,,,,,,,,,,,,,,,,,,,,821.7048736999277,822.6561709999805,2,1,0.23190689994953573,821.7048736999277,822.6561709999805,822.6528016999364,None,,,,,,,,,,,,,,,,,,,,,,,,,,,,,,,1301_t1,001,4,1,2022_Mar_17_1251,task_complete_blocked_LC_updated,2021.2.3,241.0434284320785,
,,,X,1,,,,,,,,,,,,,,,,,,,,,,,25,0,50,0,,,,,,,,,,,,,,,,,,,,,,,,,,,,,,,,,,,,,,,,,,,,,,,,,,,,,,,,,,,,,,,,,,,,,,,,,,,,,,,,,,,,,,,,,,,,,,,822.7031266000122,823.6566841999302,1,1,0.3659422000637278,822.7031266000122,823.6566841999302,823.6537123000016,None,,,,,,,,,,,,,,,,,,,,,,,,,,,,,,,1301_t1,001,4,1,2022_Mar_17_1251,task_complete_blocked_LC_updated,2021.2.3,241.0434284320785,
,,,O,2,,,,,,,,,,,,,,,,,,,,,,,25,1,51,1,,,,,,,,,,,,,,,,,,,,,,,,,,,,,,,,,,,,,,,,,,,,,,,,,,,,,,,,,,,,,,,,,,,,,,,,,,,,,,,,,,,,,,,,,,,,,,,823.703501699958,824.6550000000279,2,1,0.2330731999827549,823.703501699958,824.6550000000279,824.6515510999598,None,,,,,,,,,,,,,,,,,,,,,,,,,,,,,,,1301_t1,001,4,1,2022_Mar_17_1251,task_complete_blocked_LC_updated,2021.2.3,241.0434284320785,
,,,O,2,,,,,,,,,,,,,,,,,,,,,,,26,0,52,1,,,,,,,,,,,,,,,,,,,,,,,,,,,,,,,,,,,,,,,,,,,,,,,,,,,,,,,,,,,,,,,,,,,,,,,,,,,,,,,,,,,,,,,,,,,,,,,824.7022829999914,825.6504383999854,2,1,0.28113469993695617,824.7022829999914,825.6504383999854,825.6471777999541,None,,,,,,,,,,,,,,,,,,,,,,,,,,,,,,,1301_t1,001,4,1,2022_Mar_17_1251,task_complete_blocked_LC_updated,2021.2.3,241.0434284320785,
,,,X,1,,,,,,,,,,,,,,,,,,,,,,,26,1,53,0,,,,,,,,,,,,,,,,,,,,,,,,,,,,,,,,,,,,,,,,,,,,,,,,,,,,,,,,,,,,,,,,,,,,,,,,,,,,,,,,,,,,,,,,,,,,,,,825.7000722000375,826.6638914999785,1,1,0.22201060003135353,825.7000722000375,826.6638914999785,826.6567728000227,825.7000722000375,,,,,,,,,,,,,,,,,,,,,,,,,,,,,,,1301_t1,001,4,1,2022_Mar_17_1251,task_complete_blocked_LC_updated,2021.2.3,241.0434284320785,
,,,O,2,,,,,,,,,,,,,,,,,,,,,,,27,0,54,1,,,,,,,,,,,,,,,,,,,,,,,,,,,,,,,,,,,,,,,,,,,,,,,,,,,,,,,,,,,,,,,,,,,,,,,,,,,,,,,,,,,,,,,,,,,,,,,826.7033382999944,827.6565735000186,2,1,0.3796381999272853,826.7033382999944,827.6565735000186,827.6520978999324,None,,,,,,,,,,,,,,,,,,,,,,,,,,,,,,,1301_t1,001,4,1,2022_Mar_17_1251,task_complete_blocked_LC_updated,2021.2.3,241.0434284320785,
,,,X,1,,,,,,,,,,,,,,,,,,,,,,,27,1,55,0,,,,,,,,,,,,,,,,,,,,,,,,,,,,,,,,,,,,,,,,,,,,,,,,,,,,,,,,,,,,,,,,,,,,,,,,,,,,,,,,,,,,,,,,,,,,,,,827.7030781999929,828.6576280000154,1,1,0.247099099913612,827.7030781999929,828.6576280000154,828.6476563999895,None,,,,,,,,,,,,,,,,,,,,,,,,,,,,,,,1301_t1,001,4,1,2022_Mar_17_1251,task_complete_blocked_LC_updated,2021.2.3,241.0434284320785,
,,,O,2,,,,,,,,,,,,,,,,,,,,,,,28,0,56,1,,,,,,,,,,,,,,,,,,,,,,,,,,,,,,,,,,,,,,,,,,,,,,,,,,,,,,,,,,,,,,,,,,,,,,,,,,,,,,,,,,,,,,,,,,,,,,,828.7004642999964,829.651087300037,2,1,0.3397279001073912,828.7004642999964,829.651087300037,829.6480533999857,828.7004642999964,,,,,,,,,,,,,,,,,,,,,,,,,,,,,,,1301_t1,001,4,1,2022_Mar_17_1251,task_complete_blocked_LC_updated,2021.2.3,241.0434284320785,
,,,X,1,,,,,,,,,,,,,,,,,,,,,,,28,1,57,0,,,,,,,,,,,,,,,,,,,,,,,,,,,,,,,,,,,,,,,,,,,,,,,,,,,,,,,,,,,,,,,,,,,,,,,,,,,,,,,,,,,,,,,,,,,,,,,829.7010500000324,830.6523507999955,1,1,0.3930743000237271,829.7010500000324,830.6523507999955,830.6483345000306,829.7010500000324,,,,,,,,,,,,,,,,,,,,,,,,,,,,,,,1301_t1,001,4,1,2022_Mar_17_1251,task_complete_blocked_LC_updated,2021.2.3,241.0434284320785,
,,,O,2,,,,,,,,,,,,,,,,,,,,,,,29,0,58,1,,,,,,,,,,,,,,,,,,,,,,,,,,,,,,,,,,,,,,,,,,,,,,,,,,,,,,,,,,,,,,,,,,,,,,,,,,,,,,,,,,,,,,,,,,,,,,,830.7004371000221,831.6484043999808,2,1,0.3012977000325918,830.7004371000221,831.6484043999808,831.6484043999808,830.7004371000221,,,,,,,,,,,,,,,,,,,,,,,,,,,,,,,1301_t1,001,4,1,2022_Mar_17_1251,task_complete_blocked_LC_updated,2021.2.3,241.0434284320785,
,,,X,1,,,,,,,,,,,,,,,,,,,,,,,29,1,59,0,,,,,,,,,,,,,,,,,,,,,,,,,,,,,,,,,,,,,,,,,,,,,,,,,,,,,,,,,,,,,,,,,,,,,,,,,,,,,,,,,,,,,,,,,,,,,,,831.7004555999301,832.6526248999871,1,1,0.254869700060226,831.7004555999301,832.6526248999871,832.6526248999871,831.7004555999301,,,,,,,,,,,,,,,,,,,,,,,,,,,,,,,1301_t1,001,4,1,2022_Mar_17_1251,task_complete_blocked_LC_updated,2021.2.3,241.0434284320785,
,,,,,,,,,,,,,,,,,,,,,,,,,,,,,,,,,,,,,,,,,,,,,,,,,,,,,,,,,,,,,,,,,,,,,,,,,,,,,,,,,,,,,,,,,,,,,,,,,,,,,,,,,,,,,,,,,,,,,,,,,,,,,,,,,,,,,,832.7062601000071,None,space,39.25126699998509,837.7024043999845,None,,,,,,,,,,,,,,,,,,,,,,,,,1301_t1,001,4,1,2022_Mar_17_1251,task_complete_blocked_LC_updated,2021.2.3,241.0434284320785,
,,,,,,,,,,,,,,,,,,,,,,,,,,,,,,,,,,,,,,,,,,,,,,,,,,,,,,,,,,,,,,,,,,,,,,,,,,,,,,,,,,,,,,,,,,,,,,,876.9693072999362,None,5,12.32666220003739,876.9693072999362,None,,,,,,,,,,,,,,,,,,,,,,,,,,,,,,,,,,,,,,,,837.7024043999845,None,,,,,,,,,,,,,,,,,,,,,,,1301_t1,001,4,1,2022_Mar_17_1251,task_complete_blocked_LC_updated,2021.2.3,241.0434284320785,
stimulus_images/ABULLDOG5.jpg,TIME,0,,,,,,,,,,,,,,,,,,,,,,,,,,,,,0,0,0,6,,,,,,,,,,,,,,,,,,,,,,,,,,,,,,,,,,,,,,,,,,,,,,,,,,,,,,,,,,,,,,,,,,,2.400018274784088e-06,889.3304453999735,891.3302000999684,889.3304453999735,891.3302000999684,890.3196311999345,891.3212244999595,890.3196311999345,891.3212244999595,891.3174597999314,None,5.986544399987906,895.3070047999499,None,895.3070047999499,None,3,2.082911300007254,895.3070047999499,None,901.3037658999674,None,,,,,,,,,,,,,,,,,,,,,,,,,,,,,,,,,,,,,,,,,,1301_t1,001,4,1,2022_Mar_17_1251,task_complete_blocked_LC_updated,2021.2.3,241.0434284320785,
stimulus_images/AAFRICI13.jpg,TIME,0,,,,,,,,,,,,,,,,,,,,,,,,,,,,,0,1,1,1,,,,,,,,,,,,,,,,,,,,,,,,,,,,,,,,,,,,,,,,,,,,,,,,,,,,,,,,,,,,,,,,,,,12.988875900045969,902.3127378999488,904.3136557999533,902.3127378999488,904.3136557999533,903.3087855000049,904.3104911999544,903.3087855000049,904.3104911999544,904.3068102999823,None,18.98803400003817,908.3084558999399,None,908.3084558999399,None,4,0.3617322000209242,908.3084558999399,None,914.3103825999424,None,,,,,,,,,,,,,,,,,,,,,,,,,,,,,,,,,,,,,,,,,,1301_t1,001,4,1,2022_Mar_17_1251,task_complete_blocked_LC_updated,2021.2.3,241.0434284320785,
stimulus_images/A1OCLOC2.jpg,TIME,0,,,,,,,,,,,,,,,,,,,,,,,,,,,,,0,2,2,0,,,,,,,,,,,,,,,,,,,,,,,,,,,,,,,,,,,,,,,,,,,,,,,,,,,,,,,,,,,,,,,,,,,26.992238000035286,916.3235310999444,918.3242806999478,916.3235310999444,918.3242806999478,917.3205162000377,918.321359399939,917.3205162000377,918.321359399939,918.321359399939,None,32.99465440004133,922.3151885999832,None,922.3151885999832,None,4,0.4476511999964714,922.3151885999832,None,928.3166736999992,None,,,,,,,,,,,,,,,,,,,,,,,,,,,,,,,,,,,,,,,,,,1301_t1,001,4,1,2022_Mar_17_1251,task_complete_blocked_LC_updated,2021.2.3,241.0434284320785,
stimulus_images/AANTIBIK4.jpg,TIME,1,,,,,,,,,,,,,,,,,,,,,,,,,,,,,0,3,3,2,,,,,,,,,,,,,,,,,,,,,,,,,,,,,,,,,,,,,,,,,,,,,,,,,,,,,,,,,,,,,,,,,,,42.00292030000128,931.329284699983,933.3288090999704,931.329284699983,933.3288090999704,932.3238546999637,933.3254004999762,932.3238546999637,933.3254004999762,933.3214222999522,None,48.00181190005969,937.322080599959,None,937.322080599959,None,4,0.4098694999702275,937.322080599959,None,943.3303148000268,None,,,,,,,,,,,,,,,,,,,,,,,,,,,,,,,,,,,,,,,,,,1301_t1,001,4,1,2022_Mar_17_1251,task_complete_blocked_LC_updated,2021.2.3,241.0434284320785,
stimulus_images/Ablackma3.jpg,TIME,1,,,,,,,,,,,,,,,,,,,,,,,,,,,,,0,4,4,5,,,,,,,,,,,,,,,,,,,,,,,,,,,,,,,,,,,,,,,,,,,,,,,,,,,,,,,,,,,,,,,,,,,57.013285399996676,946.3436559999827,948.3462150000269,946.3436559999827,948.3462150000269,947.3419536999427,948.3462150000269,947.3419536999427,948.3462150000269,948.3422880000435,None,63.01563629996963,952.3361639999785,None,952.3361639999785,None,4,1.1324517999310046,952.3361639999785,None,958.3381233999971,None,,,,,,,,,,,,,,,,,,,,,,,,,,,,,,,,,,,,,,,,,,1301_t1,001,4,1,2022_Mar_17_1251,task_complete_blocked_LC_updated,2021.2.3,241.0434284320785,
stimulus_images/AFILM.jpg,TIME,0,,,,,,,,,,,,,,,,,,,,,,,,,,,,,0,5,5,9,,,,,,,,,,,,,,,,,,,,,,,,,,,,,,,,,,,,,,,,,,,,,,,,,,,,,,,,,,,,,,,,,,,70.01820849999785,959.3420939999633,961.3421619000146,959.3420939999633,961.3421619000146,960.3362276999978,961.3356039000209,960.3362276999978,961.3356039000209,961.3356039000209,None,76.0174604000058,965.3386984999524,None,965.3386984999524,None,2,1.316142600029707,965.3386984999524,None,971.3407989999978,None,,,,,,,,,,,,,,,,,,,,,,,,,,,,,,,,,,,,,,,,,,1301_t1,001,4,1,2022_Mar_17_1251,task_complete_blocked_LC_updated,2021.2.3,241.0434284320785,
stimulus_images/acquarium.jpg,TIME,1,,,,,,,,,,,,,,,,,,,,,,,,,,,,,0,6,6,8,,,,,,,,,,,,,,,,,,,,,,,,,,,,,,,,,,,,,,,,,,,,,,,,,,,,,,,,,,,,,,,,,,,84.02157750003971,973.3528051000321,975.3558939000359,973.3528051000321,975.3558939000359,974.3584050999489,975.359231099952,974.3584050999489,975.359231099952,975.3518332999665,None,90.02406930003781,979.3446150999516,None,979.3446150999516,None,2,3.3353627999313176,979.3446150999516,None,985.3438844999764,None,,,,,,,,,,,,,,,,,,,,,,,,,,,,,,,,,,,,,,,,,,1301_t1,001,4,1,2022_Mar_17_1251,task_complete_blocked_LC_updated,2021.2.3,241.0434284320785,
stimulus_images/Achair608.jpg,TIME,0,,,,,,,,,,,,,,,,,,,,,,,,,,,,,0,7,7,7,,,,,,,,,,,,,,,,,,,,,,,,,,,,,,,,,,,,,,,,,,,,,,,,,,,,,,,,,,,,,,,,,,,98.02538860007189,987.3583259999286,989.3596440999536,987.3583259999286,989.3596440999536,988.3535198000027,989.3563462999882,988.3535198000027,989.3563462999882,989.3523226999678,None,104.02877249999437,993.3501193999546,None,993.3501193999546,None,3,0.870675400015898,993.3501193999546,None,999.3498302999651,None,,,,,,,,,,,,,,,,,,,,,,,,,,,,,,,,,,,,,,,,,,1301_t1,001,4,1,2022_Mar_17_1251,task_complete_blocked_LC_updated,2021.2.3,241.0434284320785,
stimulus_images/Abaseballcap.jpg,TIME,0,,,,,,,,,,,,,,,,,,,,,,,,,,,,,0,8,8,4,,,,,,,,,,,,,,,,,,,,,,,,,,,,,,,,,,,,,,,,,,,,,,,,,,,,,,,,,,,,,,,,,,,112.03009270003531,1001.36022459995,1003.3625320999417,1001.36022459995,1003.3625320999417,1002.359327299986,1003.3592092000181,1002.359327299986,1003.3592092000181,1003.3592092000181,None,118.03254970000125,1007.353059999994,None,1007.353059999994,None,4,0.3945392998866737,1007.353059999994,None,1013.3625044999644,None,,,,,,,,,,,,,,,,,,,,,,,,,,,,,,,,,,,,,,,,,,1301_t1,001,4,1,2022_Mar_17_1251,task_complete_blocked_LC_updated,2021.2.3,241.0434284320785,
stimulus_images/Ababseat2.jpg,TIME,0,,,,,,,,,,,,,,,,,,,,,,,,,,,,,0,9,9,3,,,,,,,,,,,,,,,,,,,,,,,,,,,,,,,,,,,,,,,,,,,,,,,,,,,,,,,,,,,,,,,,,,,125.04276159999426,1014.3680211999454,1016.3716824000003,1014.3680211999454,1016.3716824000003,1015.3618010999635,1016.3678563999711,1015.3618010999635,1016.3678563999711,1016.3678563999711,None,131.0452639000723,1020.3656122999964,None,1020.3656122999964,None,4,0.5942980000982061,1020.3656122999964,None,1026.3658151000272,None,,,,,,,,,,,,,,,,,,,,,,,,,,,,,,,,,,,,,,,,,,1301_t1,001,4,1,2022_Mar_17_1251,task_complete_blocked_LC_updated,2021.2.3,241.0434284320785,
stimulus_images/A4DOMINO.jpg,TIME,0,,,,,,,,,,,,,,,,,,,,,,,,,,,,,,,,,0,0,0,7,,,,,,,,,,,,,,,,,,,,,,,,,,,,,,,,,,,,,,,,,,,,,,,,,,,,,,,,,,,,,,,138.05258750007488,1027.3760107000126,1029.3765862999717,1027.3760107000126,1029.3765862999717,1028.3752157000126,1029.3765862999717,1028.3752157000126,1029.3765862999717,1029.3735403999453,None,144.04960979998577,1033.3705259000417,None,1033.3705259000417,None,4,0.7949867000570521,1033.3705259000417,None,1039.3718536000233,None,,,,,,,,,,,,,,,,,,,,,,,,,,,,,,,,,,,,,,,,,,1301_t1,001,4,1,2022_Mar_17_1251,task_complete_blocked_LC_updated,2021.2.3,241.0434284320785,
stimulus_images/Atoywheels.jpg,TIME,0,,,,,,,,,,,,,,,,,,,,,,,,,,,,,,,,,0,1,1,4,,,,,,,,,,,,,,,,,,,,,,,,,,,,,,,,,,,,,,,,,,,,,,,,,,,,,,,,,,,,,,,153.0549596999772,1042.3789907000028,1044.3810232999967,1042.3789907000028,1044.3810232999967,1043.37505719997,1044.3777694000164,1043.37505719997,1044.3777694000164,1044.3735944000073,None,159.05558110005222,1048.3759518000297,None,1048.3759518000297,None,2,1.052756000077352,1048.3759518000297,None,1054.3817306000274,None,,,,,,,,,,,,,,,,,,,,,,,,,,,,,,,,,,,,,,,,,,1301_t1,001,4,1,2022_Mar_17_1251,task_complete_blocked_LC_updated,2021.2.3,241.0434284320785,
stimulus_images/woodvase.jpg,TIME,1,,,,,,,,,,,,,,,,,,,,,,,,,,,,,,,,,0,2,2,6,,,,,,,,,,,,,,,,,,,,,,,,,,,,,,,,,,,,,,,,,,,,,,,,,,,,,,,,,,,,,,,167.063685500063,1056.3875166999642,1058.3866942999884,1056.3875166999642,1058.3866942999884,1057.38400369999,1058.3866942999884,1057.38400369999,1058.3866942999884,1058.3866942999884,None,173.06601190008223,1062.3867518999614,None,1062.3867518999614,None,4,0.7826792999403551,1062.3867518999614,None,1068.3854553999845,None,,,,,,,,,,,,,,,,,,,,,,,,,,,,,,,,,,,,,,,,,,1301_t1,001,4,1,2022_Mar_17_1251,task_complete_blocked_LC_updated,2021.2.3,241.0434284320785,
stimulus_images/Apedestal3.jpg,TIME,0,,,,,,,,,,,,,,,,,,,,,,,,,,,,,,,,,0,3,3,2,,,,,,,,,,,,,,,,,,,,,,,,,,,,,,,,,,,,,,,,,,,,,,,,,,,,,,,,,,,,,,,182.06760950002354,1071.3984985999996,1073.4014093999285,1071.3984985999996,1073.4014093999285,1072.397012099973,1073.3965103999944,1072.397012099973,1073.3965103999944,1073.3965103999944,None,188.07047170004807,1077.3951755999587,None,1077.3951755999587,None,2,0.6276588999899104,1077.3951755999587,None,1083.3928330999333,None,,,,,,,,,,,,,,,,,,,,,,,,,,,,,,,,,,,,,,,,,,1301_t1,001,4,1,2022_Mar_17_1251,task_complete_blocked_LC_updated,2021.2.3,241.0434284320785,
stimulus_images/Agrilledmeata.jpg,TIME,0,,,,,,,,,,,,,,,,,,,,,,,,,,,,,,,,,0,4,4,0,,,,,,,,,,,,,,,,,,,,,,,,,,,,,,,,,,,,,,,,,,,,,,,,,,,,,,,,,,,,,,,197.07644289999735,1086.4068920999998,1088.4128735000268,1086.4068920999998,1088.4128735000268,1087.4079049000284,1088.4128735000268,1087.4079049000284,1088.4128735000268,1088.409302999964,None,203.07870439998806,1092.399331899942,None,1092.399331899942,None,4,0.7445971999550238,1092.399331899942,None,1098.400658700033,None,,,,,,,,,,,,,,,,,,,,,,,,,,,,,,,,,,,,,,,,,,1301_t1,001,4,1,2022_Mar_17_1251,task_complete_blocked_LC_updated,2021.2.3,241.0434284320785,
stimulus_images/Asaxophone.jpg,TIME,1,,,,,,,,,,,,,,,,,,,,,,,,,,,,,,,,,0,5,5,3,,,,,,,,,,,,,,,,,,,,,,,,,,,,,,,,,,,,,,,,,,,,,,,,,,,,,,,,,,,,,,,211.08051450003404,1100.4113737000152,1102.4177372000413,1100.4113737000152,1102.4177372000413,1101.409187400015,1102.4130512999836,1101.409187400015,1102.4130512999836,1102.4130512999836,None,217.08310040005017,1106.4035725999856,None,1106.4035725999856,None,2,1.7554707999806851,1106.4035725999856,None,1112.401133700041,None,,,,,,,,,,,,,,,,,,,,,,,,,,,,,,,,,,,,,,,,,,1301_t1,001,4,1,2022_Mar_17_1251,task_complete_blocked_LC_updated,2021.2.3,241.0434284320785,
stimulus_images/Aantiquejuke2.jpg,TIME,0,,,,,,,,,,,,,,,,,,,,,,,,,,,,,,,,,0,6,6,9,,,,,,,,,,,,,,,,,,,,,,,,,,,,,,,,,,,,,,,,,,,,,,,,,,,,,,,,,,,,,,,226.08477020007558,1115.4075595999602,1117.4060875000432,1115.4075595999602,1117.4060875000432,1116.4039728000062,1117.4028845999856,1116.4039728000062,1117.4028845999856,1117.4028845999856,None,232.0851950000506,1121.4054176999489,None,1121.4054176999489,None,4,0.4096706999698654,1121.4054176999489,None,1127.4158050999977,None,,,,,,,,,,,,,,,,,,,,,,,,,,,,,,,,,,,,,,,,,,1301_t1,001,4,1,2022_Mar_17_1251,task_complete_blocked_LC_updated,2021.2.3,241.0434284320785,
stimulus_images/keys-a.jpg,TIME,0,,,,,,,,,,,,,,,,,,,,,,,,,,,,,,,,,0,7,7,5,,,,,,,,,,,,,,,,,,,,,,,,,,,,,,,,,,,,,,,,,,,,,,,,,,,,,,,,,,,,,,,239.09741300006863,1128.4269143999554,1130.435395300039,1128.4269143999554,1130.435395300039,1129.425472300034,1130.435395300039,1129.425472300034,1130.435395300039,1130.4302544000093,None,245.09980880003422,1134.4204080000054,None,1134.4204080000054,None,4,0.4763438000809401,1134.4204080000054,None,1140.422143099946,None,,,,,,,,,,,,,,,,,,,,,,,,,,,,,,,,,,,,,,,,,,1301_t1,001,4,1,2022_Mar_17_1251,task_complete_blocked_LC_updated,2021.2.3,241.0434284320785,
stimulus_images/ALAMP.jpg,TIME,0,,,,,,,,,,,,,,,,,,,,,,,,,,,,,,,,,0,8,8,1,,,,,,,,,,,,,,,,,,,,,,,,,,,,,,,,,,,,,,,,,,,,,,,,,,,,,,,,,,,,,,,253.10536440007854,1142.4288876999635,1144.4300653999671,1142.4288876999635,1144.4300653999671,1143.4260789999971,1144.427015000023,1143.4260789999971,1144.427015000023,1144.423447499983,None,259.1053027000744,1148.4262244999409,None,1148.4262244999409,None,4,1.0020845000399277,1148.4262244999409,None,1154.4275680000428,None,,,,,,,,,,,,,,,,,,,,,,,,,,,,,,,,,,,,,,,,,,1301_t1,001,4,1,2022_Mar_17_1251,task_complete_blocked_LC_updated,2021.2.3,241.0434284320785,
stimulus_images/AAIRPUMP2.jpg,TIME,0,,,,,,,,,,,,,,,,,,,,,,,,,,,,,,,,,0,9,9,8,,,,,,,,,,,,,,,,,,,,,,,,,,,,,,,,,,,,,,,,,,,,,,,,,,,,,,,,,,,,,,,267.1119265999878,1156.435547400033,1158.4411708000116,1156.435547400033,1158.4411708000116,1157.4291964999866,1158.4351867999649,1157.4291964999866,1158.4351867999649,1158.4351867999649,None,273.11249149998184,1162.4329981999472,None,1162.4329981999472,None,2,1.077276699943468,1162.4329981999472,None,1168.4372420000145,None,,,,,,,,,,,,,,,,,,,,,,,,,,,,,,,,,,,,,,,,,,1301_t1,001,4,1,2022_Mar_17_1251,task_complete_blocked_LC_updated,2021.2.3,241.0434284320785,
,,,O,2,,,,,,,,,,,,,,,,,,,,,,,,,,,,,,,,,,,0,0,0,1,,,,,,,,,,,,,,,,,,,,,,,,,,,,,,,,,,,,,,,,,,,,,,,,,,,,,,,,,,,,,,,,,,,,,,,,,,,,,,,,,1169.4409473999403,None,1172.4468088999856,1173.4003688000375,2,1,0.8205422000028193,1172.4468088999856,1173.4003688000375,1173.3974560999777,None,,,,,,,,,,,,,,,,,,,,,,,,,,,,,,,1301_t1,001,4,1,2022_Mar_17_1251,task_complete_blocked_LC_updated,2021.2.3,241.0434284320785,
,,,X,1,,,,,,,,,,,,,,,,,,,,,,,,,,,,,,,,,,,0,1,1,0,,,,,,,,,,,,,,,,,,,,,,,,,,,,,,,,,,,,,,,,,,,,,,,,,,,,,,,,,,,,,,,,,,,,,,,,,,,,,,,,,,,1173.442797399941,1174.3932915999321,1,1,0.4184850000310689,1173.442797399941,1174.3932915999321,1174.3897885000333,None,,,,,,,,,,,,,,,,,,,,,,,,,,,,,,,1301_t1,001,4,1,2022_Mar_17_1251,task_complete_blocked_LC_updated,2021.2.3,241.0434284320785,
,,,X,1,,,,,,,,,,,,,,,,,,,,,,,,,,,,,,,,,,,1,0,2,0,,,,,,,,,,,,,,,,,,,,,,,,,,,,,,,,,,,,,,,,,,,,,,,,,,,,,,,,,,,,,,,,,,,,,,,,,,,,,,,,,,,1174.4422018999467,1175.3973480999703,1,1,0.32422339997719973,1174.4422018999467,1175.3973480999703,1175.3869727000128,None,,,,,,,,,,,,,,,,,,,,,,,,,,,,,,,1301_t1,001,4,1,2022_Mar_17_1251,task_complete_blocked_LC_updated,2021.2.3,241.0434284320785,
,,,O,2,,,,,,,,,,,,,,,,,,,,,,,,,,,,,,,,,,,1,1,3,1,,,,,,,,,,,,,,,,,,,,,,,,,,,,,,,,,,,,,,,,,,,,,,,,,,,,,,,,,,,,,,,,,,,,,,,,,,,,,,,,,,,1175.4403106999816,1176.392352499999,2,1,0.238098599947989,1175.4403106999816,1176.392352499999,1176.3899440999376,1175.4403106999816,,,,,,,,,,,,,,,,,,,,,,,,,,,,,,,1301_t1,001,4,1,2022_Mar_17_1251,task_complete_blocked_LC_updated,2021.2.3,241.0434284320785,
,,,X,1,,,,,,,,,,,,,,,,,,,,,,,,,,,,,,,,,,,2,0,4,0,,,,,,,,,,,,,,,,,,,,,,,,,,,,,,,,,,,,,,,,,,,,,,,,,,,,,,,,,,,,,,,,,,,,,,,,,,,,,,,,,,,1176.440267500002,1177.3941062999656,1,1,0.37614510010462254,1176.440267500002,1177.3941062999656,1177.39066559996,None,,,,,,,,,,,,,,,,,,,,,,,,,,,,,,,1301_t1,001,4,1,2022_Mar_17_1251,task_complete_blocked_LC_updated,2021.2.3,241.0434284320785,
,,,O,2,,,,,,,,,,,,,,,,,,,,,,,,,,,,,,,,,,,2,1,5,1,,,,,,,,,,,,,,,,,,,,,,,,,,,,,,,,,,,,,,,,,,,,,,,,,,,,,,,,,,,,,,,,,,,,,,,,,,,,,,,,,,,1177.442448799964,1178.3958031999646,2,1,0.28036159998737276,1177.442448799964,1178.3958031999646,1178.392241399968,None,,,,,,,,,,,,,,,,,,,,,,,,,,,,,,,1301_t1,001,4,1,2022_Mar_17_1251,task_complete_blocked_LC_updated,2021.2.3,241.0434284320785,
,,,O,2,,,,,,,,,,,,,,,,,,,,,,,,,,,,,,,,,,,3,0,6,1,,,,,,,,,,,,,,,,,,,,,,,,,,,,,,,,,,,,,,,,,,,,,,,,,,,,,,,,,,,,,,,,,,,,,,,,,,,,,,,,,,,1178.4417430999456,1179.390265999944,2,1,0.3517437999835238,1178.4417430999456,1179.390265999944,1179.386999499984,None,,,,,,,,,,,,,,,,,,,,,,,,,,,,,,,1301_t1,001,4,1,2022_Mar_17_1251,task_complete_blocked_LC_updated,2021.2.3,241.0434284320785,
,,,X,1,,,,,,,,,,,,,,,,,,,,,,,,,,,,,,,,,,,3,1,7,0,,,,,,,,,,,,,,,,,,,,,,,,,,,,,,,,,,,,,,,,,,,,,,,,,,,,,,,,,,,,,,,,,,,,,,,,,,,,,,,,,,,1179.4412092999555,1180.394852999947,1,1,0.24994849995709956,1179.4412092999555,1180.394852999947,1180.394852999947,1179.4412092999555,,,,,,,,,,,,,,,,,,,,,,,,,,,,,,,1301_t1,001,4,1,2022_Mar_17_1251,task_complete_blocked_LC_updated,2021.2.3,241.0434284320785,
,,,X,1,,,,,,,,,,,,,,,,,,,,,,,,,,,,,,,,,,,4,0,8,0,,,,,,,,,,,,,,,,,,,,,,,,,,,,,,,,,,,,,,,,,,,,,,,,,,,,,,,,,,,,,,,,,,,,,,,,,,,,,,,,,,,1180.4423452999908,1181.39142,1,1,0.29515759996138513,1180.4423452999908,1181.39142,1181.388517000014,None,,,,,,,,,,,,,,,,,,,,,,,,,,,,,,,1301_t1,001,4,1,2022_Mar_17_1251,task_complete_blocked_LC_updated,2021.2.3,241.0434284320785,
,,,O,2,,,,,,,,,,,,,,,,,,,,,,,,,,,,,,,,,,,4,1,9,1,,,,,,,,,,,,,,,,,,,,,,,,,,,,,,,,,,,,,,,,,,,,,,,,,,,,,,,,,,,,,,,,,,,,,,,,,,,,,,,,,,,1181.4391237000236,1182.391634700005,2,1,0.35143899999093264,1181.4391237000236,1182.391634700005,1182.3876189999282,1181.4391237000236,,,,,,,,,,,,,,,,,,,,,,,,,,,,,,,1301_t1,001,4,1,2022_Mar_17_1251,task_complete_blocked_LC_updated,2021.2.3,241.0434284320785,
,,,X,1,,,,,,,,,,,,,,,,,,,,,,,,,,,,,,,,,,,5,0,10,0,,,,,,,,,,,,,,,,,,,,,,,,,,,,,,,,,,,,,,,,,,,,,,,,,,,,,,,,,,,,,,,,,,,,,,,,,,,,,,,,,,,1182.4522270000307,1183.4007756999927,1,1,0.34519439993891865,1182.4522270000307,1183.4007756999927,1183.3981956000207,1182.4522270000307,,,,,,,,,,,,,,,,,,,,,,,,,,,,,,,1301_t1,001,4,1,2022_Mar_17_1251,task_complete_blocked_LC_updated,2021.2.3,241.0434284320785,
,,,O,2,,,,,,,,,,,,,,,,,,,,,,,,,,,,,,,,,,,5,1,11,1,,,,,,,,,,,,,,,,,,,,,,,,,,,,,,,,,,,,,,,,,,,,,,,,,,,,,,,,,,,,,,,,,,,,,,,,,,,,,,,,,,,1183.4421766999876,1184.39627259993,2,1,0.302356299944222,1183.4421766999876,1184.39627259993,1184.3866988000227,None,,,,,,,,,,,,,,,,,,,,,,,,,,,,,,,1301_t1,001,4,1,2022_Mar_17_1251,task_complete_blocked_LC_updated,2021.2.3,241.0434284320785,
,,,X,1,,,,,,,,,,,,,,,,,,,,,,,,,,,,,,,,,,,6,0,12,0,,,,,,,,,,,,,,,,,,,,,,,,,,,,,,,,,,,,,,,,,,,,,,,,,,,,,,,,,,,,,,,,,,,,,,,,,,,,,,,,,,,1184.4403098999755,1185.3918192000128,1,1,0.365941199939698,1184.4403098999755,1185.3918192000128,1185.3876258999808,1184.4403098999755,,,,,,,,,,,,,,,,,,,,,,,,,,,,,,,1301_t1,001,4,1,2022_Mar_17_1251,task_complete_blocked_LC_updated,2021.2.3,241.0434284320785,
,,,O,2,,,,,,,,,,,,,,,,,,,,,,,,,,,,,,,,,,,6,1,13,1,,,,,,,,,,,,,,,,,,,,,,,,,,,,,,,,,,,,,,,,,,,,,,,,,,,,,,,,,,,,,,,,,,,,,,,,,,,,,,,,,,,1185.440356099978,1186.3916075000307,2,1,0.2999385999282822,1185.440356099978,1186.3916075000307,1186.3880267000059,1185.440356099978,,,,,,,,,,,,,,,,,,,,,,,,,,,,,,,1301_t1,001,4,1,2022_Mar_17_1251,task_complete_blocked_LC_updated,2021.2.3,241.0434284320785,
,,,X,1,,,,,,,,,,,,,,,,,,,,,,,,,,,,,,,,,,,7,0,14,0,,,,,,,,,,,,,,,,,,,,,,,,,,,,,,,,,,,,,,,,,,,,,,,,,,,,,,,,,,,,,,,,,,,,,,,,,,,,,,,,,,,1186.4401944000274,1187.3937206999399,1,1,0.3512853999854997,1186.4401944000274,1187.3937206999399,1187.39064899995,1186.4401944000274,,,,,,,,,,,,,,,,,,,,,,,,,,,,,,,1301_t1,001,4,1,2022_Mar_17_1251,task_complete_blocked_LC_updated,2021.2.3,241.0434284320785,
,,,O,2,,,,,,,,,,,,,,,,,,,,,,,,,,,,,,,,,,,7,1,15,1,,,,,,,,,,,,,,,,,,,,,,,,,,,,,,,,,,,,,,,,,,,,,,,,,,,,,,,,,,,,,,,,,,,,,,,,,,,,,,,,,,,1187.447885200032,1188.4008410000242,2,1,0.3054528000066057,1187.447885200032,1188.4008410000242,1188.398094699951,None,,,,,,,,,,,,,,,,,,,,,,,,,,,,,,,1301_t1,001,4,1,2022_Mar_17_1251,task_complete_blocked_LC_updated,2021.2.3,241.0434284320785,
,,,X,1,,,,,,,,,,,,,,,,,,,,,,,,,,,,,,,,,,,8,0,16,0,,,,,,,,,,,,,,,,,,,,,,,,,,,,,,,,,,,,,,,,,,,,,,,,,,,,,,,,,,,,,,,,,,,,,,,,,,,,,,,,,,,1188.4426013999619,1189.3920829000417,1,1,0.37092399992980063,1188.4426013999619,1189.3920829000417,1189.3878958999412,None,,,,,,,,,,,,,,,,,,,,,,,,,,,,,,,1301_t1,001,4,1,2022_Mar_17_1251,task_complete_blocked_LC_updated,2021.2.3,241.0434284320785,
,,,O,2,,,,,,,,,,,,,,,,,,,,,,,,,,,,,,,,,,,8,1,17,1,,,,,,,,,,,,,,,,,,,,,,,,,,,,,,,,,,,,,,,,,,,,,,,,,,,,,,,,,,,,,,,,,,,,,,,,,,,,,,,,,,,1189.4402645999799,1190.3937765000155,2,1,0.27016119996551424,1189.4402645999799,1190.3937765000155,1190.3889799999306,1189.4402645999799,,,,,,,,,,,,,,,,,,,,,,,,,,,,,,,1301_t1,001,4,1,2022_Mar_17_1251,task_complete_blocked_LC_updated,2021.2.3,241.0434284320785,
,,,X,1,,,,,,,,,,,,,,,,,,,,,,,,,,,,,,,,,,,9,0,18,0,,,,,,,,,,,,,,,,,,,,,,,,,,,,,,,,,,,,,,,,,,,,,,,,,,,,,,,,,,,,,,,,,,,,,,,,,,,,,,,,,,,1190.4434547999408,1191.3917962999549,1,1,0.41308690002188087,1190.4434547999408,1191.3917962999549,1191.3892513000173,None,,,,,,,,,,,,,,,,,,,,,,,,,,,,,,,1301_t1,001,4,1,2022_Mar_17_1251,task_complete_blocked_LC_updated,2021.2.3,241.0434284320785,
,,,O,2,,,,,,,,,,,,,,,,,,,,,,,,,,,,,,,,,,,9,1,19,1,,,,,,,,,,,,,,,,,,,,,,,,,,,,,,,,,,,,,,,,,,,,,,,,,,,,,,,,,,,,,,,,,,,,,,,,,,,,,,,,,,,1191.442165000015,1192.395292100031,2,1,0.2872499000513926,1191.442165000015,1192.395292100031,1192.391577900038,None,,,,,,,,,,,,,,,,,,,,,,,,,,,,,,,1301_t1,001,4,1,2022_Mar_17_1251,task_complete_blocked_LC_updated,2021.2.3,241.0434284320785,
,,,X,1,,,,,,,,,,,,,,,,,,,,,,,,,,,,,,,,,,,10,0,20,0,,,,,,,,,,,,,,,,,,,,,,,,,,,,,,,,,,,,,,,,,,,,,,,,,,,,,,,,,,,,,,,,,,,,,,,,,,,,,,,,,,,1192.4424238000065,1193.397719600005,1,1,0.3490524000953883,1192.4424238000065,1193.397719600005,1193.387038799934,None,,,,,,,,,,,,,,,,,,,,,,,,,,,,,,,1301_t1,001,4,1,2022_Mar_17_1251,task_complete_blocked_LC_updated,2021.2.3,241.0434284320785,
,,,O,2,,,,,,,,,,,,,,,,,,,,,,,,,,,,,,,,,,,10,1,21,1,,,,,,,,,,,,,,,,,,,,,,,,,,,,,,,,,,,,,,,,,,,,,,,,,,,,,,,,,,,,,,,,,,,,,,,,,,,,,,,,,,,1193.437522299937,1194.3905326999957,2,1,0.3109266000101343,1193.437522299937,1194.3905326999957,1194.3871336999582,1193.437522299937,,,,,,,,,,,,,,,,,,,,,,,,,,,,,,,1301_t1,001,4,1,2022_Mar_17_1251,task_complete_blocked_LC_updated,2021.2.3,241.0434284320785,
,,,O,2,,,,,,,,,,,,,,,,,,,,,,,,,,,,,,,,,,,11,0,22,1,,,,,,,,,,,,,,,,,,,,,,,,,,,,,,,,,,,,,,,,,,,,,,,,,,,,,,,,,,,,,,,,,,,,,,,,,,,,,,,,,,,1194.4395980000263,1195.3906627999386,2,1,0.41179060004651546,1194.4395980000263,1195.3906627999386,1195.387231300003,1194.4395980000263,,,,,,,,,,,,,,,,,,,,,,,,,,,,,,,1301_t1,001,4,1,2022_Mar_17_1251,task_complete_blocked_LC_updated,2021.2.3,241.0434284320785,
,,,X,1,,,,,,,,,,,,,,,,,,,,,,,,,,,,,,,,,,,11,1,23,0,,,,,,,,,,,,,,,,,,,,,,,,,,,,,,,,,,,,,,,,,,,,,,,,,,,,,,,,,,,,,,,,,,,,,,,,,,,,,,,,,,,1195.4423483000137,1196.3947345999768,1,1,0.3356684000464156,1195.4423483000137,1196.3947345999768,1196.391170399962,1195.4423483000137,,,,,,,,,,,,,,,,,,,,,,,,,,,,,,,1301_t1,001,4,1,2022_Mar_17_1251,task_complete_blocked_LC_updated,2021.2.3,241.0434284320785,
,,,X,1,,,,,,,,,,,,,,,,,,,,,,,,,,,,,,,,,,,12,0,24,0,,,,,,,,,,,,,,,,,,,,,,,,,,,,,,,,,,,,,,,,,,,,,,,,,,,,,,,,,,,,,,,,,,,,,,,,,,,,,,,,,,,1196.439544999972,1197.3916253999341,1,1,0.3831345000071451,1196.439544999972,1197.3916253999341,1197.387777899974,None,,,,,,,,,,,,,,,,,,,,,,,,,,,,,,,1301_t1,001,4,1,2022_Mar_17_1251,task_complete_blocked_LC_updated,2021.2.3,241.0434284320785,
,,,O,2,,,,,,,,,,,,,,,,,,,,,,,,,,,,,,,,,,,12,1,25,1,,,,,,,,,,,,,,,,,,,,,,,,,,,,,,,,,,,,,,,,,,,,,,,,,,,,,,,,,,,,,,,,,,,,,,,,,,,,,,,,,,,1197.440046899952,1198.3917393999873,2,1,0.2724138000048697,1197.440046899952,1198.3917393999873,1198.3884183999617,1197.440046899952,,,,,,,,,,,,,,,,,,,,,,,,,,,,,,,1301_t1,001,4,1,2022_Mar_17_1251,task_complete_blocked_LC_updated,2021.2.3,241.0434284320785,
,,,X,1,,,,,,,,,,,,,,,,,,,,,,,,,,,,,,,,,,,13,0,26,0,,,,,,,,,,,,,,,,,,,,,,,,,,,,,,,,,,,,,,,,,,,,,,,,,,,,,,,,,,,,,,,,,,,,,,,,,,,,,,,,,,,1198.4407277000137,1199.3945757999318,1,1,0.3864987000124529,1198.4407277000137,1199.3945757999318,1199.3909749999875,1198.4407277000137,,,,,,,,,,,,,,,,,,,,,,,,,,,,,,,1301_t1,001,4,1,2022_Mar_17_1251,task_complete_blocked_LC_updated,2021.2.3,241.0434284320785,
,,,O,2,,,,,,,,,,,,,,,,,,,,,,,,,,,,,,,,,,,13,1,27,1,,,,,,,,,,,,,,,,,,,,,,,,,,,,,,,,,,,,,,,,,,,,,,,,,,,,,,,,,,,,,,,,,,,,,,,,,,,,,,,,,,,1199.4419395999284,1200.3924562999746,2,1,0.25755970005411655,1199.4419395999284,1200.3924562999746,1200.3890123999445,None,,,,,,,,,,,,,,,,,,,,,,,,,,,,,,,1301_t1,001,4,1,2022_Mar_17_1251,task_complete_blocked_LC_updated,2021.2.3,241.0434284320785,
,,,X,1,,,,,,,,,,,,,,,,,,,,,,,,,,,,,,,,,,,14,0,28,0,,,,,,,,,,,,,,,,,,,,,,,,,,,,,,,,,,,,,,,,,,,,,,,,,,,,,,,,,,,,,,,,,,,,,,,,,,,,,,,,,,,1200.446566700004,1201.3965198999504,1,1,0.35862359998282045,1200.446566700004,1201.3965198999504,1201.3940432999516,None,,,,,,,,,,,,,,,,,,,,,,,,,,,,,,,1301_t1,001,4,1,2022_Mar_17_1251,task_complete_blocked_LC_updated,2021.2.3,241.0434284320785,
,,,O,2,,,,,,,,,,,,,,,,,,,,,,,,,,,,,,,,,,,14,1,29,1,,,,,,,,,,,,,,,,,,,,,,,,,,,,,,,,,,,,,,,,,,,,,,,,,,,,,,,,,,,,,,,,,,,,,,,,,,,,,,,,,,,1201.442594000022,1202.3919954999583,2,1,0.2858799999812618,1201.442594000022,1202.3919954999583,1202.3891065999633,None,,,,,,,,,,,,,,,,,,,,,,,,,,,,,,,1301_t1,001,4,1,2022_Mar_17_1251,task_complete_blocked_LC_updated,2021.2.3,241.0434284320785,
,,,X,1,,,,,,,,,,,,,,,,,,,,,,,,,,,,,,,,,,,15,0,30,0,,,,,,,,,,,,,,,,,,,,,,,,,,,,,,,,,,,,,,,,,,,,,,,,,,,,,,,,,,,,,,,,,,,,,,,,,,,,,,,,,,,1202.4551760000177,1203.4075878999429,1,1,0.3734588000224903,1202.4551760000177,1203.4075878999429,1203.4044304999989,None,,,,,,,,,,,,,,,,,,,,,,,,,,,,,,,1301_t1,001,4,1,2022_Mar_17_1251,task_complete_blocked_LC_updated,2021.2.3,241.0434284320785,
,,,O,2,,,,,,,,,,,,,,,,,,,,,,,,,,,,,,,,,,,15,1,31,1,,,,,,,,,,,,,,,,,,,,,,,,,,,,,,,,,,,,,,,,,,,,,,,,,,,,,,,,,,,,,,,,,,,,,,,,,,,,,,,,,,,1203.4423816000344,1204.3919194999617,2,1,0.28282409999519587,1203.4423816000344,1204.3919194999617,1204.388648299966,None,,,,,,,,,,,,,,,,,,,,,,,,,,,,,,,1301_t1,001,4,1,2022_Mar_17_1251,task_complete_blocked_LC_updated,2021.2.3,241.0434284320785,
