stimImg,taskType,audTrial,letter,correctResponse,encode_trials1.thisRepN,encode_trials1.thisTrialN,encode_trials1.thisN,encode_trials1.thisIndex,encode_trials2.thisRepN,encode_trials2.thisTrialN,encode_trials2.thisN,encode_trials2.thisIndex,distractor.thisRepN,distractor.thisTrialN,distractor.thisN,distractor.thisIndex,encode_trials3.thisRepN,encode_trials3.thisTrialN,encode_trials3.thisN,encode_trials3.thisIndex,button_check_1.started,button_check_1.stopped,button_check_resp_1.keys,button_check_resp_1.rt,button_check_resp_1.started,button_check_resp_1.stopped,text_2.started,text_2.stopped,key_resp_3.keys,key_resp_3.rt,key_resp_3.started,key_resp_3.stopped,text_3.started,text_3.stopped,key_resp_4.keys,key_resp_4.rt,key_resp_4.started,key_resp_4.stopped,text_4.started,text_4.stopped,key_resp_5.keys,key_resp_5.rt,key_resp_5.started,key_resp_5.stopped,wait_text.started,wait_text.stopped,scanner_pulse.keys,scanner_pulse.rt,scanner_pulse.started,scanner_pulse.stopped,Trial_cue_onset,instruction.started,instruction.stopped,image_3.started,image_3.stopped,in_.started,in_.stopped,source_cue.started,source_cue.stopped,fixation.started,fixation.stopped,Response_cue_onset,rating.started,rating.stopped,text.started,text.stopped,rating_resp.keys,rating_resp.started,rating_resp.stopped,text_16.started,text_16.stopped,rating_resp.rt,instruc.started,instruc.stopped,distractor_task.started,distractor_task.stopped,distractor_task_resp.keys,distractor_task_resp.corr,distractor_task_resp.started,distractor_task_resp.stopped,flicker.started,flicker.stopped,end_screen.started,end_screen.stopped,spacebar_press.keys,spacebar_press.rt,spacebar_press.started,spacebar_press.stopped,one_moment.started,one_moment.stopped,participant,session,group,university,date,expName,psychopyVersion,frameRate,
,,,,,,,,,,,,,,,,,,,,,39.54550400000153,None,1,1.2575383740004327,39.54550400000153,None,,,,,,,,,,,,,,,,,,,,,,,,,,,,,,,,,,,,,,,,,,,,,,,,,,,,,,,,,,,,,,,,,999,001,2,,2021_Dec_08_1643,task_complete_blocked_LC_updated,2021.2.3,None,
,,,,,,,,,,,,,,,,,,,,,,,,,,,40.84000454100169,None,2,0.22053183300158707,40.84000454100169,None,,,,,,,,,,,,,,,,,,,,,,,,,,,,,,,,,,,,,,,,,,,,,,,,,,,,,,,,,,,999,001,2,,2021_Dec_08_1643,task_complete_blocked_LC_updated,2021.2.3,None,
,,,,,,,,,,,,,,,,,,,,,,,,,,,,,,,,,41.07027362499866,None,3,0.22471041699827765,41.07027362499866,None,,,,,,,,,,,,,,,,,,,,,,,,,,,,,,,,,,,,,,,,,,,,,,,,,,,,,999,001,2,,2021_Dec_08_1643,task_complete_blocked_LC_updated,2021.2.3,None,
,,,,,,,,,,,,,,,,,,,,,,,,,,,,,,,,,,,,,,,41.30251912500171,None,4,0.2598264989974268,41.30251912500171,None,,,,,,,,,,,,,,,,,,,,,,,,,,,,,,,,,,,,,,,,,,,,,,,999,001,2,,2021_Dec_08_1643,task_complete_blocked_LC_updated,2021.2.3,None,
,,,,,,,,,,,,,,,,,,,,,,,,,,,,,,,,,,,,,,,,,,,,,41.56888962499943,None,5,0.48331483299989486,41.56888962499943,None,,,,,,,,,,,,,,,,,,,,,,,,,,,,,,,,,,,,,,,,,999,001,2,,2021_Dec_08_1643,task_complete_blocked_LC_updated,2021.2.3,None,
stimulus_images/ABALLYAR4.jpg,SPACE,0,,,0,0,0,1,,,,,,,,,,,,,,,,,,,,,,,,,,,,,,,,,,,,,,,,,,,3.6249984987080097e-06,42.10446566600149,44.09784804100127,42.10446566600149,44.09784804100127,43.09283129100004,44.08730183299849,43.09283129100004,44.08730183299849,44.08730183299849,None,5.988397917000839,48.075245415999234,None,48.075245415999234,None,None,48.075245415999234,None,54.06428812499871,None,,,,,,,,,,,,,,,,,,,,999,001,2,,2021_Dec_08_1643,task_complete_blocked_LC_updated,2021.2.3,None,
stimulus_images/AOTOSCOP5.jpg,SPACE,0,,,0,1,1,9,,,,,,,,,,,,,,,,,,,,,,,,,,,,,,,,,,,,,,,,,,,12.970812416999252,55.059483790999366,57.053262290999555,55.059483790999366,57.053262290999555,56.03913354099859,57.03667787499944,56.03913354099859,57.03667787499944,57.03667787499944,None,18.945715666999604,61.03649816599864,None,61.03649816599864,None,None,61.03649816599864,None,67.03058783300003,None,,,,,,,,,,,,,,,,,,,,999,001,2,,2021_Dec_08_1643,task_complete_blocked_LC_updated,2021.2.3,None,
stimulus_images/Acomputerdriv.jpg,SPACE,0,,,0,2,2,5,,,,,,,,,,,,,,,,,,,,,,,,,,,,,,,,,,,,,,,,,,,26.93934575000094,69.03614949999974,71.0311859579997,69.03614949999974,71.0311859579997,70.02638654100156,71.0311859579997,70.02638654100156,71.0311859579997,71.02035487499961,None,32.92977125000107,75.02035579099902,None,75.02035579099902,None,None,75.02035579099902,None,81.0138339160003,None,,,,,,,,,,,,,,,,,,,,999,001,2,,2021_Dec_08_1643,task_complete_blocked_LC_updated,2021.2.3,None,
stimulus_images/Aboxofchocola.jpg,SPACE,0,,,0,3,3,3,,,,,,,,,,,,,,,,,,,,,,,,,,,,,,,,,,,,,,,,,,,40.92126095799904,83.0130106659999,85.00243966600101,83.0130106659999,85.00243966600101,84.00338995800121,84.9973800000007,84.00338995800121,84.9973800000007,84.9973800000007,None,46.90514420800173,88.9930812499988,None,88.9930812499988,None,None,88.9930812499988,None,94.98979033299838,None,,,,,,,,,,,,,,,,,,,,999,001,2,,2021_Dec_08_1643,task_complete_blocked_LC_updated,2021.2.3,None,
stimulus_images/Agiftbag20.jpg,SPACE,1,,,0,4,4,7,,,,,,,,,,,,,,,,,,,,,,,,,,,,,,,,,,,,,,,,,,,53.8977144169985,95.98919783300153,97.98064549999981,95.98919783300153,97.98064549999981,96.97033433300021,97.97232945799988,96.97033433300021,97.97232945799988,97.97232945799988,None,59.88097841700073,101.96969612500106,None,101.96969612500106,None,None,101.96969612500106,None,107.96426454099856,None,,,,,,,,,,,,,,,,,,,,999,001,2,,2021_Dec_08_1643,task_complete_blocked_LC_updated,2021.2.3,None,
stimulus_images/AICESKAT8.jpg,SPACE,0,,,0,5,5,8,,,,,,,,,,,,,,,,,,,,,,,,,,,,,,,,,,,,,,,,,,,66.87194433300101,108.96606837500076,110.96406145799847,108.96606837500076,110.96406145799847,109.95503641599862,110.95660475000113,109.95503641599862,110.95660475000113,110.94736420800109,None,72.85528775000057,114.94213716599916,None,114.94213716599916,None,None,114.94213716599916,None,120.94007608299944,None,,,,,,,,,,,,,,,,,,,,999,001,2,,2021_Dec_08_1643,task_complete_blocked_LC_updated,2021.2.3,None,
stimulus_images/ACAROSLI2.jpg,SPACE,0,,,0,6,6,4,,,,,,,,,,,,,,,,,,,,,,,,,,,,,,,,,,,,,,,,,,,80.85418258299978,122.94624124999973,124.93644662500083,122.94624124999973,124.93644662500083,123.92612912500044,124.92158516600102,123.92612912500044,124.92158516600102,124.92158516600102,None,86.82898366700101,128.92036245800045,None,128.92036245800045,None,None,128.92036245800045,None,134.9139466250017,None,,,,,,,,,,,,,,,,,,,,999,001,2,,2021_Dec_08_1643,task_complete_blocked_LC_updated,2021.2.3,None,
stimulus_images/Aeasteregg14.jpg,SPACE,0,,,0,7,7,6,,,,,,,,,,,,,,,,,,,,,,,,,,,,,,,,,,,,,,,,,,,94.82109008300176,136.91214379099983,138.9030999159986,136.91214379099983,138.9030999159986,137.89253120799913,138.88688874999934,137.89253120799913,138.88688874999934,138.88688874999934,None,100.79588462500033,142.88771737500065,None,142.88771737500065,None,2,142.88771737500065,None,148.88053520800167,None,3.7252590409989352,,,,,,,,,,,,,,,,,,,999,001,2,,2021_Dec_08_1643,task_complete_blocked_LC_updated,2021.2.3,None,
stimulus_images/ABILLTABL.jpg,SPACE,1,,,0,8,8,2,,,,,,,,,,,,,,,,,,,,,,,,,,,,,,,,,,,,,,,,,,,108.78915941699961,150.88142416600022,152.8705578750014,150.88142416600022,152.8705578750014,151.86880862500038,152.86433179099913,151.86880862500038,152.86433179099913,152.86433179099913,None,114.77186116699886,156.8597015000014,None,156.8597015000014,None,None,156.8597015000014,None,162.856340833001,None,,,,,,,,,,,,,,,,,,,,999,001,2,,2021_Dec_08_1643,task_complete_blocked_LC_updated,2021.2.3,None,
stimulus_images/AARMCHA25.jpg,SPACE,0,,,0,9,9,0,,,,,,,,,,,,,,,,,,,,,,,,,,,,,,,,,,,,,,,,,,,123.76272533299925,165.85273758300173,167.84770045800178,165.85273758300173,167.84770045800178,166.83140179100155,167.8302416660008,166.83140179100155,167.8302416660008,167.8302416660008,None,129.73870866699872,171.82724012499966,None,171.82724012499966,None,None,171.82724012499966,None,177.82156254100119,None,,,,,,,,,,,,,,,,,,,,999,001,2,,2021_Dec_08_1643,task_complete_blocked_LC_updated,2021.2.3,None,
stimulus_images/Aboots56.jpg,SPACE,0,,,,,,,0,0,0,9,,,,,,,,,,,,,,,,,,,,,,,,,,,,,,,,,,,,,,,136.75521858299908,178.84513945800063,180.83613487500043,178.84513945800063,180.83613487500043,179.81956458299828,180.81384374999834,179.81956458299828,180.81384374999834,180.8203396659992,None,142.73083704199962,184.82029949999924,None,184.82029949999924,None,None,184.82029949999924,None,190.81497383299939,None,,,,,,,,,,,,,,,,,,,,999,001,2,,2021_Dec_08_1643,task_complete_blocked_LC_updated,2021.2.3,None,
stimulus_images/Abackpack11.jpg,SPACE,1,,,,,,,0,1,1,7,,,,,,,,,,,,,,,,,,,,,,,,,,,,,,,,,,,,,,,150.7227736249988,192.81418558299993,194.80485608299932,192.81418558299993,194.80485608299932,193.7970341250002,194.79744970799948,193.7970341250002,194.79744970799948,194.80485608299932,None,156.7125179579998,198.8019881250002,None,198.8019881250002,None,None,198.8019881250002,None,204.7982677910004,None,,,,,,,,,,,,,,,,,,,,999,001,2,,2021_Dec_08_1643,task_complete_blocked_LC_updated,2021.2.3,None,
stimulus_images/Abasketofbrea.jpg,SPACE,0,,,,,,,0,2,2,8,,,,,,,,,,,,,,,,,,,,,,,,,,,,,,,,,,,,,,,165.70544920799875,207.80134008299865,209.7974069160009,207.80134008299865,209.7974069160009,208.7854938749988,209.78024158300104,208.7854938749988,209.78024158300104,209.78024158300104,None,171.68782579199978,213.775601207999,None,213.775601207999,None,None,213.775601207999,None,219.77417845799937,None,,,,,,,,,,,,,,,,,,,,999,001,2,,2021_Dec_08_1643,task_complete_blocked_LC_updated,2021.2.3,None,
stimulus_images/corkscrew02.jpg,SPACE,0,,,,,,,0,3,3,2,,,,,,,,,,,,,,,,,,,,,,,,,,,,,,,,,,,,,,,179.68116370799908,221.77312937500028,223.77069995800048,221.77312937500028,223.77069995800048,222.76020604099904,223.75448195799981,222.76020604099904,223.75448195799981,223.75448195799981,None,185.67360837500019,227.7705820830015,None,227.7705820830015,None,None,227.7705820830015,None,233.76402879099987,None,,,,,,,,,,,,,,,,,,,,999,001,2,,2021_Dec_08_1643,task_complete_blocked_LC_updated,2021.2.3,None,
stimulus_images/A25thdec3.jpg,SPACE,0,,,,,,,0,4,4,4,,,,,,,,,,,,,,,,,,,,,,,,,,,,,,,,,,,,,,,193.6708542080014,235.76191016599842,237.7533274999987,235.76191016599842,237.7533274999987,236.7410420410015,237.73699162499906,236.7410420410015,237.73699162499906,237.73699162499906,None,199.6459301670002,241.73813900000096,None,241.73813900000096,None,None,241.73813900000096,None,247.7314394999994,None,,,,,,,,,,,,,,,,,,,,999,001,2,,2021_Dec_08_1643,task_complete_blocked_LC_updated,2021.2.3,None,
stimulus_images/AALTIRE2.jpg,SPACE,0,,,,,,,0,5,5,5,,,,,,,,,,,,,,,,,,,,,,,,,,,,,,,,,,,,,,,208.6380400829985,250.73898004099829,252.73111279099976,250.73898004099829,252.73111279099976,251.725576249999,252.72132016600153,251.725576249999,252.72132016600153,252.71384745799878,None,214.6224702920008,256.7101351659985,None,256.7101351659985,None,None,256.7101351659985,None,262.70560066599865,None,,,,,,,,,,,,,,,,,,,,999,001,2,,2021_Dec_08_1643,task_complete_blocked_LC_updated,2021.2.3,None,
stimulus_images/Aantiquerota7.jpg,SPACE,0,,,,,,,0,6,6,6,,,,,,,,,,,,,,,,,,,,,,,,,,,,,,,,,,,,,,,223.6130015000017,265.7092347079997,267.7142012910008,265.7092347079997,267.7142012910008,266.69253599999865,267.69111204100045,266.69253599999865,267.69111204100045,267.69111204100045,None,229.60500266700183,271.69275054099853,None,271.69275054099853,None,None,271.69275054099853,None,277.6876225410015,None,,,,,,,,,,,,,,,,,,,,999,001,2,,2021_Dec_08_1643,task_complete_blocked_LC_updated,2021.2.3,None,
stimulus_images/Atelescope2.jpg,SPACE,1,,,,,,,0,7,7,1,,,,,,,,,,,,,,,,,,,,,,,,,,,,,,,,,,,,,,,236.5949992499991,278.69184191599925,280.68587520800065,278.69184191599925,280.68587520800065,279.6801334160009,280.669801166001,279.6801334160009,280.669801166001,280.6803356249984,None,242.58805866699913,284.67631304099996,None,284.67631304099996,None,None,284.67631304099996,None,290.67122174999895,None,,,,,,,,,,,,,,,,,,,,999,001,2,,2021_Dec_08_1643,task_complete_blocked_LC_updated,2021.2.3,None,
stimulus_images/Aroadsignin15.jpg,SPACE,1,,,,,,,0,8,8,0,,,,,,,,,,,,,,,,,,,,,,,,,,,,,,,,,,,,,,,251.57902233300047,293.67239195799993,295.67060766600116,293.67239195799993,295.67060766600116,294.6593254159998,295.654186415999,294.6593254159998,295.654186415999,295.654186415999,None,257.56126745800066,299.66421362500114,None,299.66421362500114,None,None,299.66421362500114,None,305.66385583300143,None,,,,,,,,,,,,,,,,,,,,999,001,2,,2021_Dec_08_1643,task_complete_blocked_LC_updated,2021.2.3,None,
stimulus_images/wetsuit1.jpg,SPACE,0,,,,,,,0,9,9,3,,,,,,,,,,,,,,,,,,,,,,,,,,,,,,,,,,,,,,,266.5714327079986,308.66219754100166,310.6549464160016,308.66219754100166,310.6549464160016,309.6416596659983,310.63203087500005,309.6416596659983,310.63203087500005,310.6386626659987,None,272.54472149999856,314.6303036249992,None,314.6303036249992,None,None,314.6303036249992,None,320.62224762500045,None,,,,,,,,,,,,,,,,,,,,999,001,2,,2021_Dec_08_1643,task_complete_blocked_LC_updated,2021.2.3,None,
,,,X,1,,,,,,,,,0,0,0,0,,,,,,,,,,,,,,,,,,,,,,,,,,,,,,,,,,,,,,,,,,,,,,,,,,,,,,,,,321.6296697910002,None,324.66973470800076,325.6135424999993,None,0,324.66973470800076,325.6135424999993,325.59699974999967,None,,,,,,,,,999,001,2,,2021_Dec_08_1643,task_complete_blocked_LC_updated,2021.2.3,None,
,,,O,2,,,,,,,,,0,1,1,1,,,,,,,,,,,,,,,,,,,,,,,,,,,,,,,,,,,,,,,,,,,,,,,,,,,,,,,,,,,325.6358923330008,326.58025312500104,None,0,325.6358923330008,326.58025312500104,326.5635727500012,None,,,,,,,,,999,001,2,,2021_Dec_08_1643,task_complete_blocked_LC_updated,2021.2.3,None,
,,,X,1,,,,,,,,,1,0,2,0,,,,,,,,,,,,,,,,,,,,,,,,,,,,,,,,,,,,,,,,,,,,,,,,,,,,,,,,,,,326.6096257499994,327.5523084580018,None,0,326.6096257499994,327.5523084580018,327.5382967500009,326.6096257499994,,,,,,,,,999,001,2,,2021_Dec_08_1643,task_complete_blocked_LC_updated,2021.2.3,None,
,,,O,2,,,,,,,,,1,1,3,1,,,,,,,,,,,,,,,,,,,,,,,,,,,,,,,,,,,,,,,,,,,,,,,,,,,,,,,,,,,327.592871290999,328.5358758330003,None,0,327.592871290999,328.5358758330003,328.5205721249986,327.592871290999,,,,,,,,,999,001,2,,2021_Dec_08_1643,task_complete_blocked_LC_updated,2021.2.3,None,
,,,X,1,,,,,,,,,2,0,4,0,,,,,,,,,,,,,,,,,,,,,,,,,,,,,,,,,,,,,,,,,,,,,,,,,,,,,,,,,,,328.5806648329999,329.51907616600147,None,0,328.5806648329999,329.51907616600147,329.49681387500095,328.5806648329999,,,,,,,,,999,001,2,,2021_Dec_08_1643,task_complete_blocked_LC_updated,2021.2.3,None,
,,,O,2,,,,,,,,,2,1,5,1,,,,,,,,,,,,,,,,,,,,,,,,,,,,,,,,,,,,,,,,,,,,,,,,,,,,,,,,,,,329.54264358300134,330.48605037499874,None,0,329.54264358300134,330.48605037499874,330.4706759159999,329.54264358300134,,,,,,,,,999,001,2,,2021_Dec_08_1643,task_complete_blocked_LC_updated,2021.2.3,None,
,,,O,2,,,,,,,,,3,0,6,1,,,,,,,,,,,,,,,,,,,,,,,,,,,,,,,,,,,,,,,,,,,,,,,,,,,,,,,,,,,330.51326066600086,331.45266470799834,None,0,330.51326066600086,331.45266470799834,331.4373220000016,330.51326066600086,,,,,,,,,999,001,2,,2021_Dec_08_1643,task_complete_blocked_LC_updated,2021.2.3,None,
,,,X,1,,,,,,,,,3,1,7,0,,,,,,,,,,,,,,,,,,,,,,,,,,,,,,,,,,,,,,,,,,,,,,,,,,,,,,,,,,,331.49272829099937,332.43503020799835,None,0,331.49272829099937,332.43503020799835,332.4218881250017,331.49272829099937,,,,,,,,,999,001,2,,2021_Dec_08_1643,task_complete_blocked_LC_updated,2021.2.3,None,
,,,O,2,,,,,,,,,4,0,8,1,,,,,,,,,,,,,,,,,,,,,,,,,,,,,,,,,,,,,,,,,,,,,,,,,,,,,,,,,,,332.4768747909984,333.418860875001,None,0,332.4768747909984,333.418860875001,333.40497295800014,332.4768747909984,,,,,,,,,999,001,2,,2021_Dec_08_1643,task_complete_blocked_LC_updated,2021.2.3,None,
,,,X,1,,,,,,,,,4,1,9,0,,,,,,,,,,,,,,,,,,,,,,,,,,,,,,,,,,,,,,,,,,,,,,,,,,,,,,,,,,,333.45906208299857,334.4025762499987,None,0,333.45906208299857,334.4025762499987,334.38900891600133,333.45906208299857,,,,,,,,,999,001,2,,2021_Dec_08_1643,task_complete_blocked_LC_updated,2021.2.3,None,
,,,O,2,,,,,,,,,5,0,10,1,,,,,,,,,,,,,,,,,,,,,,,,,,,,,,,,,,,,,,,,,,,,,,,,,,,,,,,,,,,334.44307954100077,335.38490254099816,None,0,334.44307954100077,335.38490254099816,335.3715260829995,334.44307954100077,,,,,,,,,999,001,2,,2021_Dec_08_1643,task_complete_blocked_LC_updated,2021.2.3,None,
,,,X,1,,,,,,,,,5,1,11,0,,,,,,,,,,,,,,,,,,,,,,,,,,,,,,,,,,,,,,,,,,,,,,,,,,,,,,,,,,,335.4258563330004,336.369481791,None,0,335.4258563330004,336.369481791,336.3538101250015,335.4258563330004,,,,,,,,,999,001,2,,2021_Dec_08_1643,task_complete_blocked_LC_updated,2021.2.3,None,
,,,O,2,,,,,,,,,6,0,12,1,,,,,,,,,,,,,,,,,,,,,,,,,,,,,,,,,,,,,,,,,,,,,,,,,,,,,,,,,,,336.4139140410007,337.3526083750003,None,0,336.4139140410007,337.3526083750003,337.32099845799894,336.4139140410007,,,,,,,,,999,001,2,,2021_Dec_08_1643,task_complete_blocked_LC_updated,2021.2.3,None,
,,,X,1,,,,,,,,,6,1,13,0,,,,,,,,,,,,,,,,,,,,,,,,,,,,,,,,,,,,,,,,,,,,,,,,,,,,,,,,,,,337.3760841660005,338.31829954099885,None,0,337.3760841660005,338.31829954099885,338.30435654100074,337.3760841660005,,,,,,,,,999,001,2,,2021_Dec_08_1643,task_complete_blocked_LC_updated,2021.2.3,None,
,,,O,2,,,,,,,,,7,0,14,1,,,,,,,,,,,,,,,,,,,,,,,,,,,,,,,,,,,,,,,,,,,,,,,,,,,,,,,,,,,338.36007037500167,339.30216912499964,None,0,338.36007037500167,339.30216912499964,339.2874487500012,338.36007037500167,,,,,,,,,999,001,2,,2021_Dec_08_1643,task_complete_blocked_LC_updated,2021.2.3,None,
,,,X,1,,,,,,,,,7,1,15,0,,,,,,,,,,,,,,,,,,,,,,,,,,,,,,,,,,,,,,,,,,,,,,,,,,,,,,,,,,,339.342554750001,340.2856718330004,None,0,339.342554750001,340.2856718330004,340.27086862500073,339.342554750001,,,,,,,,,999,001,2,,2021_Dec_08_1643,task_complete_blocked_LC_updated,2021.2.3,None,
,,,X,1,,,,,,,,,8,0,16,0,,,,,,,,,,,,,,,,,,,,,,,,,,,,,,,,,,,,,,,,,,,,,,,,,,,,,,,,,,,340.3228223750011,341.2695721249984,None,0,340.3228223750011,341.2695721249984,341.2541520829982,340.3228223750011,,,,,,,,,999,001,2,,2021_Dec_08_1643,task_complete_blocked_LC_updated,2021.2.3,None,
,,,O,2,,,,,,,,,8,1,17,1,,,,,,,,,,,,,,,,,,,,,,,,,,,,,,,,,,,,,,,,,,,,,,,,,,,,,,,,,,,341.3095899580003,342.2531070410005,None,0,341.3095899580003,342.2531070410005,342.23988016599833,341.3095899580003,,,,,,,,,999,001,2,,2021_Dec_08_1643,task_complete_blocked_LC_updated,2021.2.3,None,
,,,X,1,,,,,,,,,9,0,18,0,,,,,,,,,,,,,,,,,,,,,,,,,,,,,,,,,,,,,,,,,,,,,,,,,,,,,,,,,,,342.2897646659985,343.2362304999988,None,0,342.2897646659985,343.2362304999988,343.2205544159988,342.2897646659985,,,,,,,,,999,001,2,,2021_Dec_08_1643,task_complete_blocked_LC_updated,2021.2.3,None,
,,,O,2,,,,,,,,,9,1,19,1,,,,,,,,,,,,,,,,,,,,,,,,,,,,,,,,,,,,,,,,,,,,,,,,,,,,,,,,,,,343.2641751250012,344.20223933300076,None,0,343.2641751250012,344.20223933300076,344.1881651250005,343.2641751250012,,,,,,,,,999,001,2,,2021_Dec_08_1643,task_complete_blocked_LC_updated,2021.2.3,None,
,,,X,1,,,,,,,,,10,0,20,0,,,,,,,,,,,,,,,,,,,,,,,,,,,,,,,,,,,,,,,,,,,,,,,,,,,,,,,,,,,344.2428026250018,345.18603645799885,None,0,344.2428026250018,345.18603645799885,345.1710037080011,344.2428026250018,,,,,,,,,999,001,2,,2021_Dec_08_1643,task_complete_blocked_LC_updated,2021.2.3,None,
,,,O,2,,,,,,,,,10,1,21,1,,,,,,,,,,,,,,,,,,,,,,,,,,,,,,,,,,,,,,,,,,,,,,,,,,,,,,,,,,,345.2183971660015,346.16416408299847,None,0,345.2183971660015,346.16416408299847,346.14682795800036,345.2183971660015,,,,,,,,,999,001,2,,2021_Dec_08_1643,task_complete_blocked_LC_updated,2021.2.3,None,
,,,X,1,,,,,,,,,11,0,22,0,,,,,,,,,,,,,,,,,,,,,,,,,,,,,,,,,,,,,,,,,,,,,,,,,,,,,,,,,,,346.1923432910007,347.13595404100124,None,0,346.1923432910007,347.13595404100124,347.12059004099865,346.1923432910007,,,,,,,,,999,001,2,,2021_Dec_08_1643,task_complete_blocked_LC_updated,2021.2.3,None,
,,,O,2,,,,,,,,,11,1,23,1,,,,,,,,,,,,,,,,,,,,,,,,,,,,,,,,,,,,,,,,,,,,,,,,,,,,,,,,,,,347.1765372500013,348.1186545829987,None,0,347.1765372500013,348.1186545829987,348.10487854099847,347.1765372500013,,,,,,,,,999,001,2,,2021_Dec_08_1643,task_complete_blocked_LC_updated,2021.2.3,None,
,,,O,2,,,,,,,,,12,0,24,1,,,,,,,,,,,,,,,,,,,,,,,,,,,,,,,,,,,,,,,,,,,,,,,,,,,,,,,,,,,348.1563662910012,349.10209495800154,None,0,348.1563662910012,349.10209495800154,349.0879593749996,348.1563662910012,,,,,,,,,999,001,2,,2021_Dec_08_1643,task_complete_blocked_LC_updated,2021.2.3,None,
,,,X,1,,,,,,,,,12,1,25,0,,,,,,,,,,,,,,,,,,,,,,,,,,,,,,,,,,,,,,,,,,,,,,,,,,,,,,,,,,,349.1425727499991,350.0864627910014,None,0,349.1425727499991,350.0864627910014,350.0705876659995,349.1425727499991,,,,,,,,,999,001,2,,2021_Dec_08_1643,task_complete_blocked_LC_updated,2021.2.3,None,
,,,X,1,,,,,,,,,13,0,26,0,,,,,,,,,,,,,,,,,,,,,,,,,,,,,,,,,,,,,,,,,,,,,,,,,,,,,,,,,,,350.1229487499986,351.0632340000011,None,0,350.1229487499986,351.0632340000011,351.04709108300085,350.1229487499986,,,,,,,,,999,001,2,,2021_Dec_08_1643,task_complete_blocked_LC_updated,2021.2.3,None,
,,,O,2,,,,,,,,,13,1,27,1,,,,,,,,,,,,,,,,,,,,,,,,,,,,,,,,,,,,,,,,,,,,,,,,,,,,,,,,,,,351.09177225000167,352.0349126660003,None,0,351.09177225000167,352.0349126660003,352.021376916,351.09177225000167,,,,,,,,,999,001,2,,2021_Dec_08_1643,task_complete_blocked_LC_updated,2021.2.3,None,
,,,X,1,,,,,,,,,14,0,28,0,,,,,,,,,,,,,,,,,,,,,,,,,,,,,,,,,,,,,,,,,,,,,,,,,,,,,,,,,,,352.0805770830011,353.0199893329991,None,0,352.0805770830011,353.0199893329991,353.01360912499877,352.0805770830011,,,,,,,,,999,001,2,,2021_Dec_08_1643,task_complete_blocked_LC_updated,2021.2.3,None,
,,,O,2,,,,,,,,,14,1,29,1,,,,,,,,,,,,,,,,,,,,,,,,,,,,,,,,,,,,,,,,,,,,,,,,,,,,,,,,,,,353.0598858750018,354.00254595799925,None,0,353.0598858750018,354.00254595799925,353.9878769579991,353.0598858750018,,,,,,,,,999,001,2,,2021_Dec_08_1643,task_complete_blocked_LC_updated,2021.2.3,None,
,,,O,2,,,,,,,,,15,0,30,1,,,,,,,,,,,,,,,,,,,,,,,,,,,,,,,,,,,,,,,,,,,,,,,,,,,,,,,,,,,354.040252666,354.98503508299837,None,0,354.040252666,354.98503508299837,354.97190050000063,354.040252666,,,,,,,,,999,001,2,,2021_Dec_08_1643,task_complete_blocked_LC_updated,2021.2.3,None,
,,,X,1,,,,,,,,,15,1,31,0,,,,,,,,,,,,,,,,,,,,,,,,,,,,,,,,,,,,,,,,,,,,,,,,,,,,,,,,,,,355.0266394999999,355.969276541,None,0,355.0266394999999,355.969276541,355.9537747909999,355.0266394999999,,,,,,,,,999,001,2,,2021_Dec_08_1643,task_complete_blocked_LC_updated,2021.2.3,None,
,,,O,2,,,,,,,,,16,0,32,1,,,,,,,,,,,,,,,,,,,,,,,,,,,,,,,,,,,,,,,,,,,,,,,,,,,,,,,,,,,355.9979595830009,356.94712575000085,None,0,355.9979595830009,356.94712575000085,356.92075366599965,355.9979595830009,,,,,,,,,999,001,2,,2021_Dec_08_1643,task_complete_blocked_LC_updated,2021.2.3,None,
,,,X,1,,,,,,,,,16,1,33,0,,,,,,,,,,,,,,,,,,,,,,,,,,,,,,,,,,,,,,,,,,,,,,,,,,,,,,,,,,,356.97603487499873,357.91835033299867,None,0,356.97603487499873,357.91835033299867,357.90376237500095,356.97603487499873,,,,,,,,,999,001,2,,2021_Dec_08_1643,task_complete_blocked_LC_updated,2021.2.3,None,
,,,X,1,,,,,,,,,17,0,34,0,,,,,,,,,,,,,,,,,,,,,,,,,,,,,,,,,,,,,,,,,,,,,,,,,,,,,,,,,,,357.9565634999999,358.90292320799927,None,0,357.9565634999999,358.90292320799927,358.88711370799865,357.9565634999999,,,,,,,,,999,001,2,,2021_Dec_08_1643,task_complete_blocked_LC_updated,2021.2.3,None,
,,,O,2,,,,,,,,,17,1,35,1,,,,,,,,,,,,,,,,,,,,,,,,,,,,,,,,,,,,,,,,,,,,,,,,,,,,,,,,,,,358.9427564580001,359.88556966599936,None,0,358.9427564580001,359.88556966599936,359.87047900000107,358.9427564580001,,,,,,,,,999,001,2,,2021_Dec_08_1643,task_complete_blocked_LC_updated,2021.2.3,None,
,,,O,2,,,,,,,,,18,0,36,1,,,,,,,,,,,,,,,,,,,,,,,,,,,,,,,,,,,,,,,,,,,,,,,,,,,,,,,,,,,359.91323479100174,360.85181904099954,None,0,359.91323479100174,360.85181904099954,360.8380125830008,359.91323479100174,,,,,,,,,999,001,2,,2021_Dec_08_1643,task_complete_blocked_LC_updated,2021.2.3,None,
,,,X,1,,,,,,,,,18,1,37,0,,,,,,,,,,,,,,,,,,,,,,,,,,,,,,,,,,,,,,,,,,,,,,,,,,,,,,,,,,,360.89281116599886,361.83626862500023,None,0,360.89281116599886,361.83626862500023,361.8202975409986,360.89281116599886,,,,,,,,,999,001,2,,2021_Dec_08_1643,task_complete_blocked_LC_updated,2021.2.3,None,
,,,X,1,,,,,,,,,19,0,38,0,,,,,,,,,,,,,,,,,,,,,,,,,,,,,,,,,,,,,,,,,,,,,,,,,,,,,,,,,,,361.86316704099954,362.8020797079989,None,0,361.86316704099954,362.8020797079989,362.7869857910009,361.86316704099954,,,,,,,,,999,001,2,,2021_Dec_08_1643,task_complete_blocked_LC_updated,2021.2.3,None,
,,,O,2,,,,,,,,,19,1,39,1,,,,,,,,,,,,,,,,,,,,,,,,,,,,,,,,,,,,,,,,,,,,,,,,,,,,,,,,,,,362.842111416001,363.7848503749992,None,0,362.842111416001,363.7848503749992,363.7706937080002,362.842111416001,,,,,,,,,999,001,2,,2021_Dec_08_1643,task_complete_blocked_LC_updated,2021.2.3,None,
,,,O,2,,,,,,,,,20,0,40,1,,,,,,,,,,,,,,,,,,,,,,,,,,,,,,,,,,,,,,,,,,,,,,,,,,,,,,,,,,,363.8233174579982,364.7694850000007,None,0,363.8233174579982,364.7694850000007,364.74686554100117,363.8233174579982,,,,,,,,,999,001,2,,2021_Dec_08_1643,task_complete_blocked_LC_updated,2021.2.3,None,
,,,X,1,,,,,,,,,20,1,41,0,,,,,,,,,,,,,,,,,,,,,,,,,,,,,,,,,,,,,,,,,,,,,,,,,,,,,,,,,,,364.7928051659983,365.73597416600023,None,0,364.7928051659983,365.73597416600023,365.720156708001,364.7928051659983,,,,,,,,,999,001,2,,2021_Dec_08_1643,task_complete_blocked_LC_updated,2021.2.3,None,
,,,X,1,,,,,,,,,21,0,42,0,,,,,,,,,,,,,,,,,,,,,,,,,,,,,,,,,,,,,,,,,,,,,,,,,,,,,,,,,,,365.7719192910008,366.718533457999,None,0,365.7719192910008,366.718533457999,366.6965895829999,365.7719192910008,,,,,,,,,999,001,2,,2021_Dec_08_1643,task_complete_blocked_LC_updated,2021.2.3,None,
,,,O,2,,,,,,,,,21,1,43,1,,,,,,,,,,,,,,,,,,,,,,,,,,,,,,,,,,,,,,,,,,,,,,,,,,,,,,,,,,,366.7422776249987,367.6857041250005,None,0,366.7422776249987,367.6857041250005,367.66974070799915,366.7422776249987,,,,,,,,,999,001,2,,2021_Dec_08_1643,task_complete_blocked_LC_updated,2021.2.3,None,
,,,X,1,,,,,,,,,22,0,44,0,,,,,,,,,,,,,,,,,,,,,,,,,,,,,,,,,,,,,,,,,,,,,,,,,,,,,,,,,,,367.71333058299933,368.65319808300046,None,0,367.71333058299933,368.65319808300046,368.6370127910013,367.71333058299933,,,,,,,,,999,001,2,,2021_Dec_08_1643,task_complete_blocked_LC_updated,2021.2.3,None,
,,,O,2,,,,,,,,,22,1,45,1,,,,,,,,,,,,,,,,,,,,,,,,,,,,,,,,,,,,,,,,,,,,,,,,,,,,,,,,,,,368.68119654100155,369.63038400000005,None,0,368.68119654100155,369.63038400000005,369.60392220799986,368.68119654100155,,,,,,,,,999,001,2,,2021_Dec_08_1643,task_complete_blocked_LC_updated,2021.2.3,None,
,,,X,1,,,,,,,,,23,0,46,0,,,,,,,,,,,,,,,,,,,,,,,,,,,,,,,,,,,,,,,,,,,,,,,,,,,,,,,,,,,369.65947816599873,370.602579082999,None,0,369.65947816599873,370.602579082999,370.58705158299927,369.65947816599873,,,,,,,,,999,001,2,,2021_Dec_08_1643,task_complete_blocked_LC_updated,2021.2.3,None,
,,,O,2,,,,,,,,,23,1,47,1,,,,,,,,,,,,,,,,,,,,,,,,,,,,,,,,,,,,,,,,,,,,,,,,,,,,,,,,,,,370.6423218329983,371.5853484580002,None,0,370.6423218329983,371.5853484580002,371.57254129099965,370.6423218329983,,,,,,,,,999,001,2,,2021_Dec_08_1643,task_complete_blocked_LC_updated,2021.2.3,None,
,,,O,2,,,,,,,,,24,0,48,1,,,,,,,,,,,,,,,,,,,,,,,,,,,,,,,,,,,,,,,,,,,,,,,,,,,,,,,,,,,371.62359962499977,372.5690874159991,None,0,371.62359962499977,372.5690874159991,372.55370058300105,371.62359962499977,,,,,,,,,999,001,2,,2021_Dec_08_1643,task_complete_blocked_LC_updated,2021.2.3,None,
,,,X,1,,,,,,,,,24,1,49,0,,,,,,,,,,,,,,,,,,,,,,,,,,,,,,,,,,,,,,,,,,,,,,,,,,,,,,,,,,,372.60947454100096,373.55264120799984,None,0,372.60947454100096,373.55264120799984,373.53686712499984,372.60947454100096,,,,,,,,,999,001,2,,2021_Dec_08_1643,task_complete_blocked_LC_updated,2021.2.3,None,
,,,O,2,,,,,,,,,25,0,50,1,,,,,,,,,,,,,,,,,,,,,,,,,,,,,,,,,,,,,,,,,,,,,,,,,,,,,,,,,,,373.5917762909994,374.5349917499989,None,0,373.5917762909994,374.5349917499989,374.52181737499996,373.5917762909994,,,,,,,,,999,001,2,,2021_Dec_08_1643,task_complete_blocked_LC_updated,2021.2.3,None,
,,,X,1,,,,,,,,,25,1,51,0,,,,,,,,,,,,,,,,,,,,,,,,,,,,,,,,,,,,,,,,,,,,,,,,,,,,,,,,,,,374.57581229100106,375.51908058299887,None,0,374.57581229100106,375.51908058299887,375.50384941599987,374.57581229100106,,,,,,,,,999,001,2,,2021_Dec_08_1643,task_complete_blocked_LC_updated,2021.2.3,None,
,,,X,1,,,,,,,,,26,0,52,0,,,,,,,,,,,,,,,,,,,,,,,,,,,,,,,,,,,,,,,,,,,,,,,,,,,,,,,,,,,375.55631566599914,376.5023145000014,None,0,375.55631566599914,376.5023145000014,376.4872871660009,375.55631566599914,,,,,,,,,999,001,2,,2021_Dec_08_1643,task_complete_blocked_LC_updated,2021.2.3,None,
,,,O,2,,,,,,,,,26,1,53,1,,,,,,,,,,,,,,,,,,,,,,,,,,,,,,,,,,,,,,,,,,,,,,,,,,,,,,,,,,,376.5428225409996,377.4850912080001,None,0,376.5428225409996,377.4850912080001,377.4718582909991,376.5428225409996,,,,,,,,,999,001,2,,2021_Dec_08_1643,task_complete_blocked_LC_updated,2021.2.3,None,
,,,O,2,,,,,,,,,27,0,54,1,,,,,,,,,,,,,,,,,,,,,,,,,,,,,,,,,,,,,,,,,,,,,,,,,,,,,,,,,,,377.5240010000016,378.4688332500009,None,0,377.5240010000016,378.4688332500009,378.45442550000007,377.5240010000016,,,,,,,,,999,001,2,,2021_Dec_08_1643,task_complete_blocked_LC_updated,2021.2.3,None,
,,,X,1,,,,,,,,,27,1,55,0,,,,,,,,,,,,,,,,,,,,,,,,,,,,,,,,,,,,,,,,,,,,,,,,,,,,,,,,,,,378.5095542499985,379.4523697500008,None,0,378.5095542499985,379.4523697500008,379.43699345799905,378.5095542499985,,,,,,,,,999,001,2,,2021_Dec_08_1643,task_complete_blocked_LC_updated,2021.2.3,None,
,,,O,2,,,,,,,,,28,0,56,1,,,,,,,,,,,,,,,,,,,,,,,,,,,,,,,,,,,,,,,,,,,,,,,,,,,,,,,,,,,379.4929357910005,380.4355570410007,None,0,379.4929357910005,380.4355570410007,380.4214976660005,379.4929357910005,,,,,,,,,999,001,2,,2021_Dec_08_1643,task_complete_blocked_LC_updated,2021.2.3,None,
,,,X,1,,,,,,,,,28,1,57,0,,,,,,,,,,,,,,,,,,,,,,,,,,,,,,,,,,,,,,,,,,,,,,,,,,,,,,,,,,,380.47588195799835,381.4199465829988,None,0,380.47588195799835,381.4199465829988,381.403595415999,380.47588195799835,,,,,,,,,999,001,2,,2021_Dec_08_1643,task_complete_blocked_LC_updated,2021.2.3,None,
,,,X,1,,,,,,,,,29,0,58,0,,,,,,,,,,,,,,,,,,,,,,,,,,,,,,,,,,,,,,,,,,,,,,,,,,,,,,,,,,,381.4561197910007,382.4020679999994,None,0,381.4561197910007,382.4020679999994,382.38750991599954,381.4561197910007,,,,,,,,,999,001,2,,2021_Dec_08_1643,task_complete_blocked_LC_updated,2021.2.3,None,
,,,O,2,,,,,,,,,29,1,59,1,,,,,,,,,,,,,,,,,,,,,,,,,,,,,,,,,,,,,,,,,,,,,,,,,,,,,,,,,,,382.4423376250015,383.3849104580004,None,0,382.4423376250015,383.3849104580004,383.3715007079991,382.4423376250015,,,,,,,,,999,001,2,,2021_Dec_08_1643,task_complete_blocked_LC_updated,2021.2.3,None,
,,,,,,,,,,,,,,,,,,,,,,,,,,,,,,,,,,,,,,,,,,,,,,,,,,,,,,,,,,,,,,,,,,,,,,,,,,,,,,,,,,,383.4222292500017,None,space,2.7273466670012567,388.41998479099857,None,,,999,001,2,,2021_Dec_08_1643,task_complete_blocked_LC_updated,2021.2.3,None,
,,,,,,,,,,,,,,,,,,,,,,,,,,,,,,,,,,,,,,,,,,,,,391.2014517079988,None,5,1.5393049159974908,391.2014517079988,None,,,,,,,,,,,,,,,,,,,,,,,,,,,,,,,,,,,,,,,388.41998479099857,None,999,001,2,,2021_Dec_08_1643,task_complete_blocked_LC_updated,2021.2.3,None,
,,,,,,,,,,,,,,,,,,,,,,,,,,,,,,,,,,,,,,,,,,,,,,,,,,,5.000001692678779e-06,,,,,,,,,,,,,,,,,,,,,,,,,,,,,,,,,,,,,,,,,,,,,,,,
