stimImg,taskType,audTrial,letter,correctResponse,encode_trials1.thisRepN,encode_trials1.thisTrialN,encode_trials1.thisN,encode_trials1.thisIndex,encode_trials2.thisRepN,encode_trials2.thisTrialN,encode_trials2.thisN,encode_trials2.thisIndex,distractor.thisRepN,distractor.thisTrialN,distractor.thisN,distractor.thisIndex,encode_trials3.thisRepN,encode_trials3.thisTrialN,encode_trials3.thisN,encode_trials3.thisIndex,button_check_1.started,button_check_1.stopped,button_check_resp_1.keys,button_check_resp_1.rt,button_check_resp_1.started,button_check_resp_1.stopped,text_2.started,text_2.stopped,key_resp_3.keys,key_resp_3.rt,key_resp_3.started,key_resp_3.stopped,text_3.started,text_3.stopped,key_resp_4.keys,key_resp_4.rt,key_resp_4.started,key_resp_4.stopped,text_4.started,text_4.stopped,key_resp_5.keys,key_resp_5.rt,key_resp_5.started,key_resp_5.stopped,wait_text.started,wait_text.stopped,scanner_pulse.keys,scanner_pulse.rt,scanner_pulse.started,scanner_pulse.stopped,Trial_cue_onset,instruction.started,instruction.stopped,image_3.started,image_3.stopped,in_.started,in_.stopped,source_cue.started,source_cue.stopped,fixation.started,fixation.stopped,Response_cue_onset,rating.started,rating.stopped,text.started,text.stopped,rating_resp.keys,rating_resp.started,rating_resp.stopped,text_16.started,text_16.stopped,instruc.started,instruc.stopped,distractor_task.started,distractor_task.stopped,distractor_task_resp.keys,distractor_task_resp.corr,distractor_task_resp.started,distractor_task_resp.stopped,flicker.started,flicker.stopped,end_screen.started,end_screen.stopped,spacebar_press.keys,spacebar_press.rt,spacebar_press.started,spacebar_press.stopped,one_moment.started,one_moment.stopped,participant,session,group,university,date,expName,psychopyVersion,frameRate,
,,,,,,,,,,,,,,,,,,,,,13.742578000004869,None,1,1.8177863000018988,13.742578000004869,None,,,,,,,,,,,,,,,,,,,,,,,,,,,,,,,,,,,,,,,,,,,,,,,,,,,,,,,,,,,,,,,,999,001,1,1,2022_Jan_30_1525,task_complete_blocked_LC_updated,2021.2.3,243.36407010473582,
,,,,,,,,,,,,,,,,,,,,,,,,,,,15.571767900022678,None,2,0.3368076999904588,15.571767900022678,None,,,,,,,,,,,,,,,,,,,,,,,,,,,,,,,,,,,,,,,,,,,,,,,,,,,,,,,,,,999,001,1,1,2022_Jan_30_1525,task_complete_blocked_LC_updated,2021.2.3,243.36407010473582,
,,,,,,,,,,,,,,,,,,,,,,,,,,,,,,,,,15.921971000003396,None,3,0.33826970000518486,15.921971000003396,None,,,,,,,,,,,,,,,,,,,,,,,,,,,,,,,,,,,,,,,,,,,,,,,,,,,,999,001,1,1,2022_Jan_30_1525,task_complete_blocked_LC_updated,2021.2.3,243.36407010473582,
,,,,,,,,,,,,,,,,,,,,,,,,,,,,,,,,,,,,,,,16.275886000017636,None,4,0.6003797999874223,16.275886000017636,None,,,,,,,,,,,,,,,,,,,,,,,,,,,,,,,,,,,,,,,,,,,,,,999,001,1,1,2022_Jan_30_1525,task_complete_blocked_LC_updated,2021.2.3,243.36407010473582,
,,,,,,,,,,,,,,,,,,,,,,,,,,,,,,,,,,,,,,,,,,,,,16.888506100018276,None,5,0.8077940999937709,16.888506100018276,None,,,,,,,,,,,,,,,,,,,,,,,,,,,,,,,,,,,,,,,,999,001,1,1,2022_Jan_30_1525,task_complete_blocked_LC_updated,2021.2.3,243.36407010473582,
stimulus_images/ACANDLE30.jpg,SPACE,0,,,0,0,0,7,,,,,,,,,,,,,,,,,,,,,,,,,,,,,,,,,,,,,,,,,,,2.700020559132099e-06,17.726471800007857,19.734362000017427,17.726471800007857,19.734362000017427,18.726137300021946,19.734362000017427,18.726137300021946,19.734362000017427,19.72619190000114,None,5.997068500000751,23.718522100010887,None,23.718522100010887,None,None,23.718522100010887,None,29.718575900013093,None,,,,,,,,,,,,,,,,,,,999,001,1,1,2022_Jan_30_1525,task_complete_blocked_LC_updated,2021.2.3,243.36407010473582,
stimulus_images/Abeaver.jpg,SPACE,0,,,0,1,1,5,,,,,,,,,,,,,,,,,,,,,,,,,,,,,,,,,,,,,,,,,,,13.010690299997805,30.735721900011413,32.743049800017616,30.735721900011413,32.743049800017616,31.735216700006276,32.743049800017616,31.735216700006276,32.743049800017616,32.73491410000133,None,19.015007800015155,36.74003780001658,None,36.74003780001658,None,None,36.74003780001658,None,42.7392251000274,None,,,,,,,,,,,,,,,,,,,999,001,1,1,2022_Jan_30_1525,task_complete_blocked_LC_updated,2021.2.3,243.36407010473582,
stimulus_images/A_coin.jpg,SPACE,0,,,0,2,2,0,,,,,,,,,,,,,,,,,,,,,,,,,,,,,,,,,,,,,,,,,,,28.031269800005248,45.75204020002275,47.763905600004364,45.75204020002275,47.763905600004364,46.7520442000241,47.763905600004364,46.7520442000241,47.763905600004364,47.75619200000074,None,34.038046600006055,51.76075880002463,None,51.76075880002463,None,None,51.76075880002463,None,57.755607600003714,None,,,,,,,,,,,,,,,,,,,999,001,1,1,2022_Jan_30_1525,task_complete_blocked_LC_updated,2021.2.3,243.36407010473582,
stimulus_images/Acocktailumb4.jpg,SPACE,0,,,0,3,3,8,,,,,,,,,,,,,,,,,,,,,,,,,,,,,,,,,,,,,,,,,,,41.04975940001896,58.78249320000759,60.78938260002178,58.78249320000759,60.78938260002178,59.7902604000119,60.79759680002462,59.7902604000119,60.79759680002462,60.78083250002237,None,47.056411199999275,64.77717370001483,None,64.77717370001483,None,None,64.77717370001483,None,70.77770040000905,None,,,,,,,,,,,,,,,,,,,999,001,1,1,2022_Jan_30_1525,task_complete_blocked_LC_updated,2021.2.3,243.36407010473582,
stimulus_images/Aammonitefo14.jpg,SPACE,1,,,0,4,4,2,,,,,,,,,,,,,,,,,,,,,,,,,,,,,,,,,,,,,,,,,,,55.06622290000087,72.79490050001186,74.80644320001011,72.79490050001186,74.80644320001011,73.78999040002236,74.79834130001836,73.78999040002236,74.79834130001836,74.79834130001836,None,61.067748200002825,78.78969000000507,None,78.78969000000507,None,None,78.78969000000507,None,84.78547970001819,None,,,,,,,,,,,,,,,,,,,999,001,1,1,2022_Jan_30_1525,task_complete_blocked_LC_updated,2021.2.3,243.36407010473582,
stimulus_images/A56THUND4.jpg,SPACE,0,,,0,5,5,1,,,,,,,,,,,,,,,,,,,,,,,,,,,,,,,,,,,,,,,,,,,70.07738410000456,87.80277160002152,89.8071361000184,87.80277160002152,89.8071361000184,88.79813960002502,89.80167210000218,88.79813960002502,89.80167210000218,89.79363070000545,None,76.08416210001451,93.80647670000326,None,93.80647670000326,None,None,93.80647670000326,None,99.81100710001192,None,,,,,,,,,,,,,,,,,,,999,001,1,1,2022_Jan_30_1525,task_complete_blocked_LC_updated,2021.2.3,243.36407010473582,
stimulus_images/ADRYWOOD.jpg,SPACE,0,,,0,6,6,9,,,,,,,,,,,,,,,,,,,,,,,,,,,,,,,,,,,,,,,,,,,83.10429920000024,100.83361430000514,102.84397370001534,100.83361430000514,102.84397370001534,101.83632050000597,102.84397370001534,101.83632050000597,102.84397370001534,102.836343700008,None,89.11563140002545,106.84034680001787,None,106.84034680001787,None,None,106.84034680001787,None,112.82696630002465,None,,,,,,,,,,,,,,,,,,,999,001,1,1,2022_Jan_30_1525,task_complete_blocked_LC_updated,2021.2.3,243.36407010473582,
stimulus_images/Abottleofbat2.jpg,SPACE,1,,,0,7,7,6,,,,,,,,,,,,,,,,,,,,,,,,,,,,,,,,,,,,,,,,,,,96.114269600017,113.83615660000942,115.84366290000617,113.83615660000942,115.84366290000617,114.8313627000025,115.83519540002453,114.8313627000025,115.83519540002453,115.83519540002453,None,102.12141340001835,119.83985330001451,None,119.83985330001451,None,None,119.83985330001451,None,125.83543730000383,None,,,,,,,,,,,,,,,,,,,999,001,1,1,2022_Jan_30_1525,task_complete_blocked_LC_updated,2021.2.3,243.36407010473582,
stimulus_images/AARCCHAR2.jpg,SPACE,0,,,0,8,8,3,,,,,,,,,,,,,,,,,,,,,,,,,,,,,,,,,,,,,,,,,,,110.12634909999906,127.84873150000931,129.85662530001719,127.84873150000931,129.85662530001719,128.8439371000277,129.84834520000732,128.8439371000277,129.84834520000732,129.84834520000732,None,116.1338456000085,133.85228780002217,None,133.85228780002217,None,None,133.85228780002217,None,139.8512264000019,None,,,,,,,,,,,,,,,,,,,999,001,1,1,2022_Jan_30_1525,task_complete_blocked_LC_updated,2021.2.3,243.36407010473582,
stimulus_images/ABALLBEAR.jpg,SPACE,0,,,0,9,9,4,,,,,,,,,,,,,,,,,,,,,,,,,,,,,,,,,,,,,,,,,,,124.14350310000009,141.86543790000724,143.8686118000187,141.86543790000724,143.8686118000187,142.85649010000634,143.86093650001567,142.85649010000634,143.86093650001567,143.86093650001567,None,130.14735530002508,147.86477420001756,None,147.86477420001756,None,None,147.86477420001756,None,153.86894750001375,None,,,,,,,,,,,,,,,,,,,999,001,1,1,2022_Jan_30_1525,task_complete_blocked_LC_updated,2021.2.3,243.36407010473582,
stimulus_images/weddingdress.jpg,SPACE,0,,,,,,,0,0,0,6,,,,,,,,,,,,,,,,,,,,,,,,,,,,,,,,,,,,,,,138.1692515000177,155.8905722000054,157.89820450000116,155.8905722000054,157.89820450000116,156.88588120002532,157.88982430001488,156.88588120002532,157.88982430001488,157.88982430001488,None,144.16978720002226,161.8905681000033,None,161.8905681000033,None,None,161.8905681000033,None,167.89449950002017,None,,,,,,,,,,,,,,,,,,,999,001,1,1,2022_Jan_30_1525,task_complete_blocked_LC_updated,2021.2.3,243.36407010473582,
stimulus_images/AABSTRACT.jpg,SPACE,1,,,,,,,0,1,1,8,,,,,,,,,,,,,,,,,,,,,,,,,,,,,,,,,,,,,,,153.18809450001572,170.91596190002747,172.92297240000335,170.91596190002747,172.92297240000335,171.9150369000272,172.92297240000335,171.9150369000272,172.92297240000335,172.91499590000603,None,159.19649690002552,176.9150128000183,None,176.9150128000183,None,None,176.9150128000183,None,182.90616960002808,None,,,,,,,,,,,,,,,,,,,999,001,1,1,2022_Jan_30_1525,task_complete_blocked_LC_updated,2021.2.3,243.36407010473582,
stimulus_images/AHIGCHAIR.jpg,SPACE,0,,,,,,,0,2,2,1,,,,,,,,,,,,,,,,,,,,,,,,,,,,,,,,,,,,,,,167.1934215000074,184.91510680000647,186.92018610000378,184.91510680000647,186.92018610000378,185.9067030000151,186.9147523000138,185.9067030000151,186.9147523000138,186.90639060002286,None,173.19643420001375,190.9214194000233,None,190.9214194000233,None,None,190.9214194000233,None,196.91968040002394,None,,,,,,,,,,,,,,,,,,,999,001,1,1,2022_Jan_30_1525,task_complete_blocked_LC_updated,2021.2.3,243.36407010473582,
stimulus_images/A_flower.jpg,SPACE,0,,,,,,,0,3,3,7,,,,,,,,,,,,,,,,,,,,,,,,,,,,,,,,,,,,,,,181.2128614000103,198.94117790000746,201.71577120001893,198.94117790000746,201.71577120001893,199.9409038000158,201.71577120001893,199.9409038000158,201.71577120001893,201.71577120001893,None,187.21634559999802,204.94106700000702,None,204.94106700000702,None,None,204.94106700000702,None,210.9321195000084,None,,,,,,,,,,,,,,,,,,,999,001,1,1,2022_Jan_30_1525,task_complete_blocked_LC_updated,2021.2.3,243.36407010473582,
stimulus_images/AGLASSFL4.jpg,SPACE,1,,,,,,,0,4,4,0,,,,,,,,,,,,,,,,,,,,,,,,,,,,,,,,,,,,,,,195.22112750000088,212.94995860001654,214.95709380001063,212.94995860001654,214.95709380001063,213.95378420001362,214.95709380001063,213.95378420001362,214.95709380001063,214.94035760001861,None,201.22171670000535,218.939881600003,None,218.939881600003,None,None,218.939881600003,None,224.94905970001128,None,,,,,,,,,,,,,,,,,,,999,001,1,1,2022_Jan_30_1525,task_complete_blocked_LC_updated,2021.2.3,243.36407010473582,
stimulus_images/beanbagchair.jpg,SPACE,0,,,,,,,0,5,5,5,,,,,,,,,,,,,,,,,,,,,,,,,,,,,,,,,,,,,,,208.23995640000794,225.96187600001576,227.9697202000243,225.96187600001576,227.9697202000243,226.97132340000826,227.97804900002666,226.97132340000826,227.97804900002666,227.96111920001567,None,214.2493413000193,231.97495740000159,None,231.97495740000159,None,None,231.97495740000159,None,237.9703564000083,None,,,,,,,,,,,,,,,,,,,999,001,1,1,2022_Jan_30_1525,task_complete_blocked_LC_updated,2021.2.3,243.36407010473582,
stimulus_images/AMUSISTA2.jpg,SPACE,0,,,,,,,0,6,6,2,,,,,,,,,,,,,,,,,,,,,,,,,,,,,,,,,,,,,,,223.26208710001083,240.98734920000425,242.9946219000267,240.98734920000425,242.9946219000267,241.98677690001205,242.9946219000267,241.98677690001205,242.9946219000267,242.98631410000962,None,229.26541400002316,246.98704110001563,None,246.98704110001563,None,None,246.98704110001563,None,252.98652040000889,None,,,,,,,,,,,,,,,,,,,999,001,1,1,2022_Jan_30_1525,task_complete_blocked_LC_updated,2021.2.3,243.36407010473582,
stimulus_images/Astereo30.jpg,SPACE,1,,,,,,,0,7,7,4,,,,,,,,,,,,,,,,,,,,,,,,,,,,,,,,,,,,,,,238.2784475000226,255.99960950002423,258.01131860000896,255.99960950002423,258.01131860000896,257.00345150000066,258.01131860000896,257.00345150000066,258.01131860000896,257.99441170002683,None,244.2804614000197,261.9991762000136,None,261.9991762000136,None,None,261.9991762000136,None,268.00813970001764,None,,,,,,,,,,,,,,,,,,,999,001,1,1,2022_Jan_30_1525,task_complete_blocked_LC_updated,2021.2.3,243.36407010473582,
stimulus_images/Aribbon21.jpg,SPACE,0,,,,,,,0,8,8,3,,,,,,,,,,,,,,,,,,,,,,,,,,,,,,,,,,,,,,,253.29862960000173,271.0205139000027,273.0283502000093,271.0205139000027,273.0283502000093,272.0159559000167,273.0197139000229,272.0159559000167,273.0197139000229,273.0197139000229,None,259.30396260001,277.02920310001355,None,277.02920310001355,None,None,277.02920310001355,None,283.0198273000133,None,,,,,,,,,,,,,,,,,,,999,001,1,1,2022_Jan_30_1525,task_complete_blocked_LC_updated,2021.2.3,243.36407010473582,
stimulus_images/Aancientston3.jpg,SPACE,0,,,,,,,0,9,9,9,,,,,,,,,,,,,,,,,,,,,,,,,,,,,,,,,,,,,,,267.3106969000073,285.0331876000273,287.04068720000214,285.0331876000273,287.04068720000214,286.0283236000105,287.03219420000096,286.0283236000105,287.03219420000096,287.03219420000096,None,273.31842760002473,291.03662050000275,None,291.03662050000275,None,None,291.03662050000275,None,297.0408433000266,None,,,,,,,,,,,,,,,,,,,999,001,1,1,2022_Jan_30_1525,task_complete_blocked_LC_updated,2021.2.3,243.36407010473582,
,,,O,2,,,,,,,,,0,0,0,1,,,,,,,,,,,,,,,,,,,,,,,,,,,,,,,,,,,,,,,,,,,,,,,,,,,,,,,,298.04520770002273,None,301.0570478000154,302.0116116000281,None,0,301.0570478000154,302.0116116000281,302.0116116000281,None,,,,,,,,,999,001,1,1,2022_Jan_30_1525,task_complete_blocked_LC_updated,2021.2.3,243.36407010473582,
,,,X,1,,,,,,,,,0,1,1,0,,,,,,,,,,,,,,,,,,,,,,,,,,,,,,,,,,,,,,,,,,,,,,,,,,,,,,,,,,302.0577402000199,303.0118890000158,None,0,302.0577402000199,303.0118890000158,303.0033288000268,None,,,,,,,,,999,001,1,1,2022_Jan_30_1525,task_complete_blocked_LC_updated,2021.2.3,243.36407010473582,
,,,O,2,,,,,,,,,1,0,2,1,,,,,,,,,,,,,,,,,,,,,,,,,,,,,,,,,,,,,,,,,,,,,,,,,,,,,,,,,,303.0533017000125,304.01192220000667,None,0,303.0533017000125,304.01192220000667,304.0033502000151,None,,,,,,,,,999,001,1,1,2022_Jan_30_1525,task_complete_blocked_LC_updated,2021.2.3,243.36407010473582,
,,,X,1,,,,,,,,,1,1,3,0,,,,,,,,,,,,,,,,,,,,,,,,,,,,,,,,,,,,,,,,,,,,,,,,,,,,,,,,,,304.0532361000078,305.0118717000005,None,0,304.0532361000078,305.0118717000005,305.0041080000228,None,,,,,,,,,999,001,1,1,2022_Jan_30_1525,task_complete_blocked_LC_updated,2021.2.3,243.36407010473582,
,,,O,2,,,,,,,,,2,0,4,1,,,,,,,,,,,,,,,,,,,,,,,,,,,,,,,,,,,,,,,,,,,,,,,,,,,,,,,,,,305.04941200002213,306.00356310000643,None,0,305.04941200002213,306.00356310000643,305.994934700022,None,,,,,,,,,999,001,1,1,2022_Jan_30_1525,task_complete_blocked_LC_updated,2021.2.3,243.36407010473582,
,,,X,1,,,,,,,,,2,1,5,0,,,,,,,,,,,,,,,,,,,,,,,,,,,,,,,,,,,,,,,,,,,,,,,,,,,,,,,,,,306.05327160001616,307.01158120000036,None,0,306.05327160001616,307.01158120000036,307.0034513999999,None,,,,,,,,,999,001,1,1,2022_Jan_30_1525,task_complete_blocked_LC_updated,2021.2.3,243.36407010473582,
,,,X,1,,,,,,,,,3,0,6,0,,,,,,,,,,,,,,,,,,,,,,,,,,,,,,,,,,,,,,,,,,,,,,,,,,,,,,,,,,307.0535719000036,308.0117012000119,None,0,307.0535719000036,308.0117012000119,308.0033489000052,None,,,,,,,,,999,001,1,1,2022_Jan_30_1525,task_complete_blocked_LC_updated,2021.2.3,243.36407010473582,
,,,O,2,,,,,,,,,3,1,7,1,,,,,,,,,,,,,,,,,,,,,,,,,,,,,,,,,,,,,,,,,,,,,,,,,,,,,,,,,,308.05331790001947,309.0075127000164,None,0,308.05331790001947,309.0075127000164,308.99911840001005,None,,,,,,,,,999,001,1,1,2022_Jan_30_1525,task_complete_blocked_LC_updated,2021.2.3,243.36407010473582,
,,,O,2,,,,,,,,,4,0,8,1,,,,,,,,,,,,,,,,,,,,,,,,,,,,,,,,,,,,,,,,,,,,,,,,,,,,,,,,,,309.0491500000062,310.00751070000115,None,0,309.0491500000062,310.00751070000115,309.9991803000157,None,,,,,,,,,999,001,1,1,2022_Jan_30_1525,task_complete_blocked_LC_updated,2021.2.3,243.36407010473582,
,,,X,1,,,,,,,,,4,1,9,0,,,,,,,,,,,,,,,,,,,,,,,,,,,,,,,,,,,,,,,,,,,,,,,,,,,,,,,,,,310.04945200000657,311.0035888000275,None,0,310.04945200000657,311.0035888000275,310.99513190001016,None,,,,,,,,,999,001,1,1,2022_Jan_30_1525,task_complete_blocked_LC_updated,2021.2.3,243.36407010473582,
,,,X,1,,,,,,,,,5,0,10,0,,,,,,,,,,,,,,,,,,,,,,,,,,,,,,,,,,,,,,,,,,,,,,,,,,,,,,,,,,311.05316060001496,312.0075802000065,None,0,311.05316060001496,312.0075802000065,311.9994484000199,None,,,,,,,,,999,001,1,1,2022_Jan_30_1525,task_complete_blocked_LC_updated,2021.2.3,243.36407010473582,
,,,O,2,,,,,,,,,5,1,11,1,,,,,,,,,,,,,,,,,,,,,,,,,,,,,,,,,,,,,,,,,,,,,,,,,,,,,,,,,,312.0493456000113,313.0046139000042,None,0,312.0493456000113,313.0046139000042,312.9988124000083,None,,,,,,,,,999,001,1,1,2022_Jan_30_1525,task_complete_blocked_LC_updated,2021.2.3,243.36407010473582,
,,,O,2,,,,,,,,,6,0,12,1,,,,,,,,,,,,,,,,,,,,,,,,,,,,,,,,,,,,,,,,,,,,,,,,,,,,,,,,,,313.0533258000214,314.0075442000234,None,0,313.0533258000214,314.0075442000234,313.99921000000904,None,,,,,,,,,999,001,1,1,2022_Jan_30_1525,task_complete_blocked_LC_updated,2021.2.3,243.36407010473582,
,,,X,1,,,,,,,,,6,1,13,0,,,,,,,,,,,,,,,,,,,,,,,,,,,,,,,,,,,,,,,,,,,,,,,,,,,,,,,,,,314.0492227000068,315.0036284000089,None,0,314.0492227000068,315.0036284000089,314.9950593000103,None,,,,,,,,,999,001,1,1,2022_Jan_30_1525,task_complete_blocked_LC_updated,2021.2.3,243.36407010473582,
,,,O,2,,,,,,,,,7,0,14,1,,,,,,,,,,,,,,,,,,,,,,,,,,,,,,,,,,,,,,,,,,,,,,,,,,,,,,,,,,315.06144480002695,316.01587010000367,None,0,315.06144480002695,316.01587010000367,316.0074839000008,None,,,,,,,,,999,001,1,1,2022_Jan_30_1525,task_complete_blocked_LC_updated,2021.2.3,243.36407010473582,
,,,X,1,,,,,,,,,7,1,15,0,,,,,,,,,,,,,,,,,,,,,,,,,,,,,,,,,,,,,,,,,,,,,,,,,,,,,,,,,,316.05327940001735,317.0119459000125,None,0,316.05327940001735,317.0119459000125,317.0034258000087,None,,,,,,,,,999,001,1,1,2022_Jan_30_1525,task_complete_blocked_LC_updated,2021.2.3,243.36407010473582,
,,,X,1,,,,,,,,,8,0,16,0,,,,,,,,,,,,,,,,,,,,,,,,,,,,,,,,,,,,,,,,,,,,,,,,,,,,,,,,,,317.0539944000193,318.0119715000037,None,0,317.0539944000193,318.0119715000037,318.0033746000263,None,,,,,,,,,999,001,1,1,2022_Jan_30_1525,task_complete_blocked_LC_updated,2021.2.3,243.36407010473582,
,,,O,2,,,,,,,,,8,1,17,1,,,,,,,,,,,,,,,,,,,,,,,,,,,,,,,,,,,,,,,,,,,,,,,,,,,,,,,,,,318.0534099000215,319.01169020001544,None,0,318.0534099000215,319.01169020001544,319.003059700015,None,,,,,,,,,999,001,1,1,2022_Jan_30_1525,task_complete_blocked_LC_updated,2021.2.3,243.36407010473582,
,,,X,1,,,,,,,,,9,0,18,0,,,,,,,,,,,,,,,,,,,,,,,,,,,,,,,,,,,,,,,,,,,,,,,,,,,,,,,,,,319.05334870002116,320.01175300002797,None,0,319.05334870002116,320.01175300002797,320.00365830000374,None,,,,,,,,,999,001,1,1,2022_Jan_30_1525,task_complete_blocked_LC_updated,2021.2.3,243.36407010473582,
,,,O,2,,,,,,,,,9,1,19,1,,,,,,,,,,,,,,,,,,,,,,,,,,,,,,,,,,,,,,,,,,,,,,,,,,,,,,,,,,320.0533820000128,321.01241750002373,None,0,320.0533820000128,321.01241750002373,321.0033516000258,None,,,,,,,,,999,001,1,1,2022_Jan_30_1525,task_complete_blocked_LC_updated,2021.2.3,243.36407010473582,
,,,O,2,,,,,,,,,10,0,20,1,,,,,,,,,,,,,,,,,,,,,,,,,,,,,,,,,,,,,,,,,,,,,,,,,,,,,,,,,,321.0536559000029,322.0117959000054,None,0,321.0536559000029,322.0117959000054,322.00340210000286,None,,,,,,,,,999,001,1,1,2022_Jan_30_1525,task_complete_blocked_LC_updated,2021.2.3,243.36407010473582,
,,,X,1,,,,,,,,,10,1,21,0,,,,,,,,,,,,,,,,,,,,,,,,,,,,,,,,,,,,,,,,,,,,,,,,,,,,,,,,,,322.0534487000259,323.0078387000249,None,0,322.0534487000259,323.0078387000249,322.9992750000092,None,,,,,,,,,999,001,1,1,2022_Jan_30_1525,task_complete_blocked_LC_updated,2021.2.3,243.36407010473582,
,,,X,1,,,,,,,,,11,0,22,0,,,,,,,,,,,,,,,,,,,,,,,,,,,,,,,,,,,,,,,,,,,,,,,,,,,,,,,,,,323.049242100009,324.0076255000022,None,0,323.049242100009,324.0076255000022,323.99927880000905,None,,,,,,,,,999,001,1,1,2022_Jan_30_1525,task_complete_blocked_LC_updated,2021.2.3,243.36407010473582,
,,,O,2,,,,,,,,,11,1,23,1,,,,,,,,,,,,,,,,,,,,,,,,,,,,,,,,,,,,,,,,,,,,,,,,,,,,,,,,,,324.04920570002287,325.00348650000524,None,0,324.04920570002287,325.00348650000524,324.99508900000365,None,,,,,,,,,999,001,1,1,2022_Jan_30_1525,task_complete_blocked_LC_updated,2021.2.3,243.36407010473582,
,,,O,2,,,,,,,,,12,0,24,1,,,,,,,,,,,,,,,,,,,,,,,,,,,,,,,,,,,,,,,,,,,,,,,,,,,,,,,,,,325.0536448000057,326.0117697000096,None,0,325.0536448000057,326.0117697000096,326.00335560002713,None,,,,,,,,,999,001,1,1,2022_Jan_30_1525,task_complete_blocked_LC_updated,2021.2.3,243.36407010473582,
,,,X,1,,,,,,,,,12,1,25,0,,,,,,,,,,,,,,,,,,,,,,,,,,,,,,,,,,,,,,,,,,,,,,,,,,,,,,,,,,326.05336680001346,327.0076893000223,None,0,326.05336680001346,327.0076893000223,326.99904080000124,None,,,,,,,,,999,001,1,1,2022_Jan_30_1525,task_complete_blocked_LC_updated,2021.2.3,243.36407010473582,
,,,X,1,,,,,,,,,13,0,26,0,,,,,,,,,,,,,,,,,,,,,,,,,,,,,,,,,,,,,,,,,,,,,,,,,,,,,,,,,,327.0493212000001,328.00309370001196,None,0,327.0493212000001,328.00309370001196,327.9951416000258,None,,,,,,,,,999,001,1,1,2022_Jan_30_1525,task_complete_blocked_LC_updated,2021.2.3,243.36407010473582,
,,,O,2,,,,,,,,,13,1,27,1,,,,,,,,,,,,,,,,,,,,,,,,,,,,,,,,,,,,,,,,,,,,,,,,,,,,,,,,,,328.05775460001314,329.0159763000265,None,0,328.05775460001314,329.0159763000265,329.0078058000072,None,,,,,,,,,999,001,1,1,2022_Jan_30_1525,task_complete_blocked_LC_updated,2021.2.3,243.36407010473582,
,,,X,1,,,,,,,,,14,0,28,0,,,,,,,,,,,,,,,,,,,,,,,,,,,,,,,,,,,,,,,,,,,,,,,,,,,,,,,,,,329.053432900022,330.00788920000196,None,0,329.053432900022,330.00788920000196,329.99957580000046,None,,,,,,,,,999,001,1,1,2022_Jan_30_1525,task_complete_blocked_LC_updated,2021.2.3,243.36407010473582,
,,,O,2,,,,,,,,,14,1,29,1,,,,,,,,,,,,,,,,,,,,,,,,,,,,,,,,,,,,,,,,,,,,,,,,,,,,,,,,,,330.0489076000231,331.00374390001525,None,0,330.0489076000231,331.00374390001525,331.00374390001525,None,,,,,,,,,999,001,1,1,2022_Jan_30_1525,task_complete_blocked_LC_updated,2021.2.3,243.36407010473582,
,,,O,2,,,,,,,,,15,0,30,1,,,,,,,,,,,,,,,,,,,,,,,,,,,,,,,,,,,,,,,,,,,,,,,,,,,,,,,,,,331.053510000027,332.01207570001134,None,0,331.053510000027,332.01207570001134,332.0034863000037,None,,,,,,,,,999,001,1,1,2022_Jan_30_1525,task_complete_blocked_LC_updated,2021.2.3,243.36407010473582,
,,,X,1,,,,,,,,,15,1,31,0,,,,,,,,,,,,,,,,,,,,,,,,,,,,,,,,,,,,,,,,,,,,,,,,,,,,,,,,,,332.05787640000926,333.01624870000524,None,0,332.05787640000926,333.01624870000524,333.00808150001103,None,,,,,,,,,999,001,1,1,2022_Jan_30_1525,task_complete_blocked_LC_updated,2021.2.3,243.36407010473582,
,,,X,1,,,,,,,,,16,0,32,0,,,,,,,,,,,,,,,,,,,,,,,,,,,,,,,,,,,,,,,,,,,,,,,,,,,,,,,,,,333.04958450002596,334.0087240000139,None,0,333.04958450002596,334.0087240000139,334.0087240000139,None,,,,,,,,,999,001,1,1,2022_Jan_30_1525,task_complete_blocked_LC_updated,2021.2.3,243.36407010473582,
,,,O,2,,,,,,,,,16,1,33,1,,,,,,,,,,,,,,,,,,,,,,,,,,,,,,,,,,,,,,,,,,,,,,,,,,,,,,,,,,334.0633210000233,335.02114660001826,None,0,334.0633210000233,335.02114660001826,335.00859480001964,None,,,,,,,,,999,001,1,1,2022_Jan_30_1525,task_complete_blocked_LC_updated,2021.2.3,243.36407010473582,
,,,O,2,,,,,,,,,17,0,34,1,,,,,,,,,,,,,,,,,,,,,,,,,,,,,,,,,,,,,,,,,,,,,,,,,,,,,,,,,,335.06281760000275,336.0335092000023,None,0,335.06281760000275,336.0335092000023,336.0216089000169,None,,,,,,,,,999,001,1,1,2022_Jan_30_1525,task_complete_blocked_LC_updated,2021.2.3,243.36407010473582,
,,,X,1,,,,,,,,,17,1,35,0,,,,,,,,,,,,,,,,,,,,,,,,,,,,,,,,,,,,,,,,,,,,,,,,,,,,,,,,,,336.0578597999993,337.0254168000247,None,0,336.0578597999993,337.0254168000247,337.0129087000096,None,,,,,,,,,999,001,1,1,2022_Jan_30_1525,task_complete_blocked_LC_updated,2021.2.3,243.36407010473582,
,,,O,2,,,,,,,,,18,0,36,1,,,,,,,,,,,,,,,,,,,,,,,,,,,,,,,,,,,,,,,,,,,,,,,,,,,,,,,,,,337.05942440000945,338.02126300000236,None,0,337.05942440000945,338.02126300000236,338.00937840002007,None,,,,,,,,,999,001,1,1,2022_Jan_30_1525,task_complete_blocked_LC_updated,2021.2.3,243.36407010473582,
,,,X,1,,,,,,,,,18,1,37,0,,,,,,,,,,,,,,,,,,,,,,,,,,,,,,,,,,,,,,,,,,,,,,,,,,,,,,,,,,338.06208900001366,339.02183150002384,None,0,338.06208900001366,339.02183150002384,339.02183150002384,None,,,,,,,,,999,001,1,1,2022_Jan_30_1525,task_complete_blocked_LC_updated,2021.2.3,243.36407010473582,
,,,O,2,,,,,,,,,19,0,38,1,,,,,,,,,,,,,,,,,,,,,,,,,,,,,,,,,,,,,,,,,,,,,,,,,,,,,,,,,,339.066272200027,340.03361330000916,None,0,339.066272200027,340.03361330000916,340.0252783000178,None,,,,,,,,,999,001,1,1,2022_Jan_30_1525,task_complete_blocked_LC_updated,2021.2.3,243.36407010473582,
,,,X,1,,,,,,,,,19,1,39,0,,,,,,,,,,,,,,,,,,,,,,,,,,,,,,,,,,,,,,,,,,,,,,,,,,,,,,,,,,340.05903730000136,341.01765480000176,None,0,340.05903730000136,341.01765480000176,341.01765480000176,None,,,,,,,,,999,001,1,1,2022_Jan_30_1525,task_complete_blocked_LC_updated,2021.2.3,243.36407010473582,
,,,X,1,,,,,,,,,20,0,40,0,,,,,,,,,,,,,,,,,,,,,,,,,,,,,,,,,,,,,,,,,,,,,,,,,,,,,,,,,,341.0587298000173,342.0174161000177,None,0,341.0587298000173,342.0174161000177,342.00513840001076,None,,,,,,,,,999,001,1,1,2022_Jan_30_1525,task_complete_blocked_LC_updated,2021.2.3,243.36407010473582,
,,,O,2,,,,,,,,,20,1,41,1,,,,,,,,,,,,,,,,,,,,,,,,,,,,,,,,,,,,,,,,,,,,,,,,,,,,,,,,,,342.0579553999996,343.016308500024,None,0,342.0579553999996,343.016308500024,343.0078539000242,None,,,,,,,,,999,001,1,1,2022_Jan_30_1525,task_complete_blocked_LC_updated,2021.2.3,243.36407010473582,
,,,O,2,,,,,,,,,21,0,42,1,,,,,,,,,,,,,,,,,,,,,,,,,,,,,,,,,,,,,,,,,,,,,,,,,,,,,,,,,,343.05438110002433,344.0260884000163,None,0,343.05438110002433,344.0260884000163,344.0135559000191,None,,,,,,,,,999,001,1,1,2022_Jan_30_1525,task_complete_blocked_LC_updated,2021.2.3,243.36407010473582,
,,,X,1,,,,,,,,,21,1,43,0,,,,,,,,,,,,,,,,,,,,,,,,,,,,,,,,,,,,,,,,,,,,,,,,,,,,,,,,,,344.0751259000099,345.02902250000625,None,0,344.0751259000099,345.02902250000625,345.0207209000073,None,,,,,,,,,999,001,1,1,2022_Jan_30_1525,task_complete_blocked_LC_updated,2021.2.3,243.36407010473582,
,,,X,1,,,,,,,,,22,0,44,0,,,,,,,,,,,,,,,,,,,,,,,,,,,,,,,,,,,,,,,,,,,,,,,,,,,,,,,,,,345.0574636000092,346.0177634000138,None,0,345.0574636000092,346.0177634000138,346.0177634000138,None,,,,,,,,,999,001,1,1,2022_Jan_30_1525,task_complete_blocked_LC_updated,2021.2.3,243.36407010473582,
,,,O,2,,,,,,,,,22,1,45,1,,,,,,,,,,,,,,,,,,,,,,,,,,,,,,,,,,,,,,,,,,,,,,,,,,,,,,,,,,346.0577474000165,347.02980020001996,None,0,346.0577474000165,347.02980020001996,347.0177321000083,None,,,,,,,,,999,001,1,1,2022_Jan_30_1525,task_complete_blocked_LC_updated,2021.2.3,243.36407010473582,
,,,X,1,,,,,,,,,23,0,46,0,,,,,,,,,,,,,,,,,,,,,,,,,,,,,,,,,,,,,,,,,,,,,,,,,,,,,,,,,,347.06608060002327,348.02470120001817,None,0,347.06608060002327,348.02470120001817,348.01639920001617,None,,,,,,,,,999,001,1,1,2022_Jan_30_1525,task_complete_blocked_LC_updated,2021.2.3,243.36407010473582,
,,,O,2,,,,,,,,,23,1,47,1,,,,,,,,,,,,,,,,,,,,,,,,,,,,,,,,,,,,,,,,,,,,,,,,,,,,,,,,,,348.0539685000258,349.01338560000295,None,0,348.0539685000258,349.01338560000295,349.0043298000237,None,,,,,,,,,999,001,1,1,2022_Jan_30_1525,task_complete_blocked_LC_updated,2021.2.3,243.36407010473582,
,,,O,2,,,,,,,,,24,0,48,1,,,,,,,,,,,,,,,,,,,,,,,,,,,,,,,,,,,,,,,,,,,,,,,,,,,,,,,,,,349.05839130000095,350.01638350001303,None,0,349.05839130000095,350.01638350001303,350.00813480000943,None,,,,,,,,,999,001,1,1,2022_Jan_30_1525,task_complete_blocked_LC_updated,2021.2.3,243.36407010473582,
,,,X,1,,,,,,,,,24,1,49,0,,,,,,,,,,,,,,,,,,,,,,,,,,,,,,,,,,,,,,,,,,,,,,,,,,,,,,,,,,350.05396110002766,351.01210590000846,None,0,350.05396110002766,351.01210590000846,351.00361560002784,None,,,,,,,,,999,001,1,1,2022_Jan_30_1525,task_complete_blocked_LC_updated,2021.2.3,243.36407010473582,
,,,X,1,,,,,,,,,25,0,50,0,,,,,,,,,,,,,,,,,,,,,,,,,,,,,,,,,,,,,,,,,,,,,,,,,,,,,,,,,,351.05397560002166,352.02191920002224,None,0,351.05397560002166,352.02191920002224,352.0087631000206,None,,,,,,,,,999,001,1,1,2022_Jan_30_1525,task_complete_blocked_LC_updated,2021.2.3,243.36407010473582,
,,,O,2,,,,,,,,,25,1,51,1,,,,,,,,,,,,,,,,,,,,,,,,,,,,,,,,,,,,,,,,,,,,,,,,,,,,,,,,,,352.0669390000112,353.0285328000027,None,0,352.0669390000112,353.0285328000027,353.0206932000001,None,,,,,,,,,999,001,1,1,2022_Jan_30_1525,task_complete_blocked_LC_updated,2021.2.3,243.36407010473582,
,,,O,2,,,,,,,,,26,0,52,1,,,,,,,,,,,,,,,,,,,,,,,,,,,,,,,,,,,,,,,,,,,,,,,,,,,,,,,,,,353.05346260001534,354.01773530000355,None,0,353.05346260001534,354.01773530000355,354.00447660000646,None,,,,,,,,,999,001,1,1,2022_Jan_30_1525,task_complete_blocked_LC_updated,2021.2.3,243.36407010473582,
,,,X,1,,,,,,,,,26,1,53,0,,,,,,,,,,,,,,,,,,,,,,,,,,,,,,,,,,,,,,,,,,,,,,,,,,,,,,,,,,354.063518800016,355.0206751000078,None,0,354.063518800016,355.0206751000078,355.0206751000078,None,,,,,,,,,999,001,1,1,2022_Jan_30_1525,task_complete_blocked_LC_updated,2021.2.3,243.36407010473582,
,,,X,1,,,,,,,,,27,0,54,0,,,,,,,,,,,,,,,,,,,,,,,,,,,,,,,,,,,,,,,,,,,,,,,,,,,,,,,,,,355.05893379999907,356.02209490002133,None,0,355.05893379999907,356.02209490002133,356.0086802000005,None,,,,,,,,,999,001,1,1,2022_Jan_30_1525,task_complete_blocked_LC_updated,2021.2.3,243.36407010473582,
,,,O,2,,,,,,,,,27,1,55,1,,,,,,,,,,,,,,,,,,,,,,,,,,,,,,,,,,,,,,,,,,,,,,,,,,,,,,,,,,356.06715420002,357.0248286999995,None,0,356.06715420002,357.0248286999995,357.0165494000248,None,,,,,,,,,999,001,1,1,2022_Jan_30_1525,task_complete_blocked_LC_updated,2021.2.3,243.36407010473582,
,,,O,2,,,,,,,,,28,0,56,1,,,,,,,,,,,,,,,,,,,,,,,,,,,,,,,,,,,,,,,,,,,,,,,,,,,,,,,,,,357.0497707000177,358.0177222000202,None,0,357.0497707000177,358.0177222000202,358.0086699000094,None,,,,,,,,,999,001,1,1,2022_Jan_30_1525,task_complete_blocked_LC_updated,2021.2.3,243.36407010473582,
,,,X,1,,,,,,,,,28,1,57,0,,,,,,,,,,,,,,,,,,,,,,,,,,,,,,,,,,,,,,,,,,,,,,,,,,,,,,,,,,358.05814420001116,359.0131671000272,None,0,358.05814420001116,359.0131671000272,359.004411300004,None,,,,,,,,,999,001,1,1,2022_Jan_30_1525,task_complete_blocked_LC_updated,2021.2.3,243.36407010473582,
,,,X,1,,,,,,,,,29,0,58,0,,,,,,,,,,,,,,,,,,,,,,,,,,,,,,,,,,,,,,,,,,,,,,,,,,,,,,,,,,359.05861980002373,360.02092390001053,None,0,359.05861980002373,360.02092390001053,360.0126289000036,None,,,,,,,,,999,001,1,1,2022_Jan_30_1525,task_complete_blocked_LC_updated,2021.2.3,243.36407010473582,
,,,O,2,,,,,,,,,29,1,59,1,,,,,,,,,,,,,,,,,,,,,,,,,,,,,,,,,,,,,,,,,,,,,,,,,,,,,,,,,,360.0579637000046,361.02426010000636,None,0,360.0579637000046,361.02426010000636,361.01250720000826,None,,,,,,,,,999,001,1,1,2022_Jan_30_1525,task_complete_blocked_LC_updated,2021.2.3,243.36407010473582,
,,,,,,,,,,,,,,,,,,,,,,,,,,,,,,,,,,,,,,,,,,,,,,,,,,,,,,,,,,,,,,,,,,,,,,,,,,,,,,,,,,361.0539687000273,None,space,7.540398599987384,366.05870340002,None,,,999,001,1,1,2022_Jan_30_1525,task_complete_blocked_LC_updated,2021.2.3,243.36407010473582,
,,,,,,,,,,,,,,,,,,,,,,,,,,,,,,,,,,,,,,,,,,,,,373.6124792000046,None,5,1.6993957000086084,373.6124792000046,None,,,,,,,,,,,,,,,,,,,,,,,,,,,,,,,,,,,,,,366.05870340002,None,999,001,1,1,2022_Jan_30_1525,task_complete_blocked_LC_updated,2021.2.3,243.36407010473582,
,,,,,,,,,,,,,,,,,,,,,,,,,,,,,,,,,,,,,,,,,,,,,,,,,,,2.8999929782003164e-06,,,,,,,,,,,,,,,,,,,,,,,,,,,,,,,,,,,,,,,,,,,,,,,
